rt,url,trial_type,trial_index,time_elapsed,internal_node_id,stimulus,button_pressed,test_part,boxes_type,utt_type,correct_side,responses,subid,accuracy
16771.82999999968,recaptcha.html,external-html,0,16824,0.0-0.0,NA,NA,NA,NA,NA,NA,NA,amln_fjbh_yqoe,NA
5548.3449999992445,consent/consent.html,external-html,1,22405,0.0-1.0,NA,NA,NA,NA,NA,NA,NA,amln_fjbh_yqoe,NA
906.9799999997485,NA,html-button-response,2,23317,0.0-2.0,"<p>In this experiment, you will see some aliens talk and make judgments about what they are talking about.",0,setup,NA,NA,NA,NA,amln_fjbh_yqoe,NA
1421.0199999997712,NA,html-button-response,3,26740,0.0-3.0-0.0,"<p>This is Dax the alien. He speaks an alien language.<br><br>He says, <i> ""Difu Dax midaku.""</i><br>That means ""Hello, my name is Dax.""</p><br><div style='width: 700px;'><div style='float: center;'><img src='img/alien1.png' width='250' height='300'></img></div></div><br>",0,setup,NA,NA,NA,NA,amln_fjbh_yqoe,NA
1546.9199999988632,NA,html-button-response,4,28292,0.0-3.0-1.0,"<p>Dax has a box. <br> He opens the box and looks inside. <br><br>Then, Dax says, <i>""Toma zem zorp bidaku midu osh gipu!""</i></p><div style='width: 700px;'><div style='float: center;'><img src='img/alien1.png' width='250' height='300'></img></div><div style='float: center;'><img src='img/grey_box.png'></img></div></div><br>",0,setup,NA,NA,NA,NA,amln_fjbh_yqoe,NA
781.1899999996967,NA,html-button-response,5,29079,0.0-3.0-2.0,"<p>Which box do you think Dax was looking in when he said<br><i>""Toma zem zorp bidaku midu osh gipu!""</i>?</p><div style='width: 700px;'></div>",1,test,num,complex,1,NA,amln_fjbh_yqoe,1
5364.415000000008,NA,survey-text,6,34478,0.0-4.0,NA,NA,comment,NA,NA,NA,wonderful,amln_fjbh_yqoe,NA
819.084999999177,NA,html-button-response,7,35301,0.0-5.0,<p>This is the end of the study. Thank you for participating!</p>,0,NA,NA,NA,NA,NA,amln_fjbh_yqoe,NA
14992.80000012368,recaptcha.html,external-html,0,15007,0.0-0.0,NA,NA,NA,NA,NA,NA,NA,anut_zzad_gqho,NA
10951.829999918118,consent/consent.html,external-html,1,25965,0.0-1.0,NA,NA,NA,NA,NA,NA,NA,anut_zzad_gqho,NA
2668.5450000222772,NA,html-button-response,2,28636,0.0-2.0,"<p>In this experiment, you will see some aliens talk and make judgments about what they are talking about.",0,setup,NA,NA,NA,NA,anut_zzad_gqho,NA
2247.3649999592453,NA,html-button-response,3,32895,0.0-3.0-0.0,"<p>This is Dax the alien. He speaks an alien language.<br><br>He says, <i> ""Difu Dax midaku.""</i><br>That means ""Hello, my name is Dax.""</p><br><div style='width: 700px;'><div style='float: center;'><img src='img/alien1.png' width='250' height='300'></img></div></div><br>",0,setup,NA,NA,NA,NA,anut_zzad_gqho,NA
2848.354999907315,NA,html-button-response,4,35745,0.0-3.0-1.0,"<p>Dax has a box. <br> He opens the box and looks inside. <br><br>Then, Dax says, <i>""Toma!""</i></p><div style='width: 700px;'><div style='float: center;'><img src='img/alien1.png' width='250' height='300'></img></div><div style='float: center;'><img src='img/grey_box.png'></img></div></div><br>",0,setup,NA,NA,NA,NA,anut_zzad_gqho,NA
3078.3400000073016,NA,html-button-response,5,38825,0.0-3.0-2.0,"<p>Which box do you think Dax was looking in when he said<br><i>""Toma!""</i>?</p><div style='width: 700px;'></div>",0,test,entropy,simple,1,NA,anut_zzad_gqho,0
2397.4249998573214,NA,survey-text,6,41226,0.0-4.0,NA,NA,comment,NA,NA,NA,,anut_zzad_gqho,NA
2008.1850001588464,NA,html-button-response,7,43235,0.0-5.0,<p>This is the end of the study. Thank you for participating!</p>,0,NA,NA,NA,NA,NA,anut_zzad_gqho,NA
14195.86499966681,recaptcha.html,external-html,0,14270,0.0-0.0,NA,NA,NA,NA,NA,NA,NA,aopn_sytf_unlx,NA
27147.789999842644,consent/consent.html,external-html,1,41728,0.0-1.0,NA,NA,NA,NA,NA,NA,NA,aopn_sytf_unlx,NA
3123.7949999049306,NA,html-button-response,2,44855,0.0-2.0,"<p>In this experiment, you will see some aliens talk and make judgments about what they are talking about.",0,setup,NA,NA,NA,NA,aopn_sytf_unlx,NA
9179.37000002712,NA,html-button-response,3,56039,0.0-3.0-0.0,"<p>This is Dax the alien. He speaks an alien language.<br><br>He says, <i> ""Difu Dax midaku.""</i><br>That means ""Hello, my name is Dax.""</p><br><div style='width: 700px;'><div style='float: center;'><img src='img/alien1.png' width='250' height='300'></img></div></div><br>",0,setup,NA,NA,NA,NA,aopn_sytf_unlx,NA
30149.459999985993,NA,html-button-response,4,86191,0.0-3.0-1.0,"<p>Dax has a box. <br> He opens the box and looks inside. <br><br>Then, Dax says, <i>""Toma zem zorp bidaku midu osh gipu!""</i></p><div style='width: 700px;'><div style='float: center;'><img src='img/alien1.png' width='250' height='300'></img></div><div style='float: center;'><img src='img/grey_box.png'></img></div></div><br>",0,setup,NA,NA,NA,NA,aopn_sytf_unlx,NA
9698.420000262558,NA,html-button-response,5,95895,0.0-3.0-2.0,"<p>Which box do you think Dax was looking in when he said<br><i>""Toma zem zorp bidaku midu osh gipu!""</i>?</p><div style='width: 700px;'></div>",0,test,type,complex,0,NA,aopn_sytf_unlx,1
44439.544999971986,NA,survey-text,6,140345,0.0-4.0,NA,NA,comment,NA,NA,NA,colour box,aopn_sytf_unlx,NA
4787.255000323057,NA,html-button-response,7,145134,0.0-5.0,<p>This is the end of the study. Thank you for participating!</p>,0,NA,NA,NA,NA,NA,aopn_sytf_unlx,NA
17120.52999995649,recaptcha.html,external-html,0,17132,0.0-0.0,NA,NA,NA,NA,NA,NA,NA,bfig_cuvr_fidg,NA
9208.319999976084,consent/consent.html,external-html,1,26350,0.0-1.0,NA,NA,NA,NA,NA,NA,NA,bfig_cuvr_fidg,NA
3018.279999960214,NA,html-button-response,2,29371,0.0-2.0,"<p>In this experiment, you will see some aliens talk and make judgments about what they are talking about.",0,setup,NA,NA,NA,NA,bfig_cuvr_fidg,NA
2035.0800000596792,NA,html-button-response,3,33419,0.0-3.0-0.0,"<p>This is Dax the alien. He speaks an alien language.<br><br>He says, <i> ""Difu Dax midaku.""</i><br>That means ""Hello, my name is Dax.""</p><br><div style='width: 700px;'><div style='float: center;'><img src='img/alien1.png' width='250' height='300'></img></div></div><br>",0,setup,NA,NA,NA,NA,bfig_cuvr_fidg,NA
5008.290000027046,NA,html-button-response,4,38430,0.0-3.0-1.0,"<p>Dax has a box. <br> He opens the box and looks inside. <br><br>Then, Dax says, <i>""Toma zem zorp bidaku midu osh gipu!""</i></p><div style='width: 700px;'><div style='float: center;'><img src='img/alien1.png' width='250' height='300'></img></div><div style='float: center;'><img src='img/grey_box.png'></img></div></div><br>",0,setup,NA,NA,NA,NA,bfig_cuvr_fidg,NA
1567.9950001649559,NA,html-button-response,5,40000,0.0-3.0-2.0,"<p>Which box do you think Dax was looking in when he said<br><i>""Toma zem zorp bidaku midu osh gipu!""</i>?</p><div style='width: 700px;'></div>",0,test,entropy,complex,0,NA,bfig_cuvr_fidg,1
4356.980000156909,NA,survey-text,6,44360,0.0-4.0,NA,NA,comment,NA,NA,NA,cantain different things,bfig_cuvr_fidg,NA
1728.0600001104176,NA,html-button-response,7,46090,0.0-5.0,<p>This is the end of the study. Thank you for participating!</p>,0,NA,NA,NA,NA,NA,bfig_cuvr_fidg,NA
30835.290000002715,recaptcha.html,external-html,0,30941,0.0-0.0,NA,NA,NA,NA,NA,NA,NA,cayv_mqgx_yetb,NA
27811.94999998843,consent/consent.html,external-html,1,58865,0.0-1.0,NA,NA,NA,NA,NA,NA,NA,cayv_mqgx_yetb,NA
2649.3499999924097,NA,html-button-response,2,61518,0.0-2.0,"<p>In this experiment, you will see some aliens talk and make judgments about what they are talking about.",0,setup,NA,NA,NA,NA,cayv_mqgx_yetb,NA
5389.414999997825,NA,html-button-response,3,68915,0.0-3.0-0.0,"<p>This is Dax the alien. He speaks an alien language.<br><br>He says, <i> ""Difu Dax midaku.""</i><br>That means ""Hello, my name is Dax.""</p><br><div style='width: 700px;'><div style='float: center;'><img src='img/alien1.png' width='250' height='300'></img></div></div><br>",0,setup,NA,NA,NA,NA,cayv_mqgx_yetb,NA
4157.820000007632,NA,html-button-response,4,73076,0.0-3.0-1.0,"<p>Dax has a box. <br> He opens the box and looks inside. <br><br>Then, Dax says, <i>""Toma!""</i></p><div style='width: 700px;'><div style='float: center;'><img src='img/alien1.png' width='250' height='300'></img></div><div style='float: center;'><img src='img/grey_box.png'></img></div></div><br>",0,setup,NA,NA,NA,NA,cayv_mqgx_yetb,NA
5866.355000005569,NA,html-button-response,5,78949,0.0-3.0-2.0,"<p>Which box do you think Dax was looking in when he said<br><i>""Toma!""</i>?</p><div style='width: 700px;'></div>",0,test,entropy,simple,1,NA,cayv_mqgx_yetb,0
20214.60500000103,NA,survey-text,6,99187,0.0-4.0,NA,NA,comment,NA,NA,NA,Was good,cayv_mqgx_yetb,NA
2976.5000000043074,NA,html-button-response,7,102166,0.0-5.0,<p>This is the end of the study. Thank you for participating!</p>,0,NA,NA,NA,NA,NA,cayv_mqgx_yetb,NA
6146.109999972396,recaptcha.html,external-html,0,6239,0.0-0.0,NA,NA,NA,NA,NA,NA,NA,cewg_scpl_jxna,NA
25023.825000040233,consent/consent.html,external-html,1,31275,0.0-1.0,NA,NA,NA,NA,NA,NA,NA,cewg_scpl_jxna,NA
3342.529999965336,NA,html-button-response,2,34620,0.0-2.0,"<p>In this experiment, you will see some aliens talk and make judgments about what they are talking about.",0,setup,NA,NA,NA,NA,cewg_scpl_jxna,NA
15644.195000000764,NA,html-button-response,3,52267,0.0-3.0-0.0,"<p>This is Dax the alien. He speaks an alien language.<br><br>He says, <i> ""Difu Dax midaku.""</i><br>That means ""Hello, my name is Dax.""</p><br><div style='width: 700px;'><div style='float: center;'><img src='img/alien1.png' width='250' height='300'></img></div></div><br>",0,setup,NA,NA,NA,NA,cewg_scpl_jxna,NA
13876.06500001857,NA,html-button-response,4,66147,0.0-3.0-1.0,"<p>Dax has a box. <br> He opens the box and looks inside. <br><br>Then, Dax says, <i>""Toma zem zorp bidaku midu osh gipu!""</i></p><div style='width: 700px;'><div style='float: center;'><img src='img/alien1.png' width='250' height='300'></img></div><div style='float: center;'><img src='img/grey_box.png'></img></div></div><br>",0,setup,NA,NA,NA,NA,cewg_scpl_jxna,NA
5001.589999999851,NA,html-button-response,5,71151,0.0-3.0-2.0,"<p>Which box do you think Dax was looking in when he said<br><i>""Toma zem zorp bidaku midu osh gipu!""</i>?</p><div style='width: 700px;'></div>",1,test,type,complex,1,NA,cewg_scpl_jxna,1
48222.935000027064,NA,survey-text,6,119399,0.0-4.0,NA,NA,comment,NA,NA,NA,"Dax speak a long sentence, so the box might contain lots of things",cewg_scpl_jxna,NA
861.4500000257976,NA,html-button-response,7,120262,0.0-5.0,<p>This is the end of the study. Thank you for participating!</p>,0,NA,NA,NA,NA,NA,cewg_scpl_jxna,NA
10683.46499998006,recaptcha.html,external-html,0,10782,0.0-0.0,NA,NA,NA,NA,NA,NA,NA,cmuq_hzgb_oygl,NA
11935.36000000313,consent/consent.html,external-html,1,23125,0.0-1.0,NA,NA,NA,NA,NA,NA,NA,cmuq_hzgb_oygl,NA
3045.914999995148,NA,html-button-response,2,26174,0.0-2.0,"<p>In this experiment, you will see some aliens talk and make judgments about what they are talking about.",0,setup,NA,NA,NA,NA,cmuq_hzgb_oygl,NA
12237.674999982119,NA,html-button-response,3,40414,0.0-3.0-0.0,"<p>This is Dax the alien. He speaks an alien language.<br><br>He says, <i> ""Difu Dax midaku.""</i><br>That means ""Hello, my name is Dax.""</p><br><div style='width: 700px;'><div style='float: center;'><img src='img/alien1.png' width='250' height='300'></img></div></div><br>",0,setup,NA,NA,NA,NA,cmuq_hzgb_oygl,NA
5759.084999997867,NA,html-button-response,4,46176,0.0-3.0-1.0,"<p>Dax has a box. <br> He opens the box and looks inside. <br><br>Then, Dax says, <i>""Toma zem zorp bidaku midu osh gipu!""</i></p><div style='width: 700px;'><div style='float: center;'><img src='img/alien1.png' width='250' height='300'></img></div><div style='float: center;'><img src='img/grey_box.png'></img></div></div><br>",0,setup,NA,NA,NA,NA,cmuq_hzgb_oygl,NA
4055.0849999999627,NA,html-button-response,5,50233,0.0-3.0-2.0,"<p>Which box do you think Dax was looking in when he said<br><i>""Toma zem zorp bidaku midu osh gipu!""</i>?</p><div style='width: 700px;'></div>",1,test,num,complex,0,NA,cmuq_hzgb_oygl,0
27479.08499999903,NA,survey-text,6,77716,0.0-4.0,NA,NA,comment,NA,NA,NA,It looks like there are a lot of interesting things Dax wants to show off.,cmuq_hzgb_oygl,NA
1721.335000009276,NA,html-button-response,7,79439,0.0-5.0,<p>This is the end of the study. Thank you for participating!</p>,0,NA,NA,NA,NA,NA,cmuq_hzgb_oygl,NA
17064.00000001304,recaptcha.html,external-html,0,17347,0.0-0.0,NA,NA,NA,NA,NA,NA,NA,cutp_exbj_gwmv,NA
18510.000000009313,consent/consent.html,external-html,1,36922,0.0-1.0,NA,NA,NA,NA,NA,NA,NA,cutp_exbj_gwmv,NA
1629.0000000735745,NA,html-button-response,2,38552,0.0-2.0,"<p>In this experiment, you will see some aliens talk and make judgments about what they are talking about.",0,setup,NA,NA,NA,NA,cutp_exbj_gwmv,NA
5309.999999939464,NA,html-button-response,3,45863,0.0-3.0-0.0,"<p>This is Dax the alien. He speaks an alien language.<br><br>He says, <i> ""Difu Dax midaku.""</i><br>That means ""Hello, my name is Dax.""</p><br><div style='width: 700px;'><div style='float: center;'><img src='img/alien1.png' width='250' height='300'></img></div></div><br>",0,setup,NA,NA,NA,NA,cutp_exbj_gwmv,NA
7657.000000006519,NA,html-button-response,4,53521,0.0-3.0-1.0,"<p>Dax has a box. <br> He opens the box and looks inside. <br><br>Then, Dax says, <i>""Toma zem zorp bidaku midu osh gipu!""</i></p><div style='width: 700px;'><div style='float: center;'><img src='img/alien1.png' width='250' height='300'></img></div><div style='float: center;'><img src='img/grey_box.png'></img></div></div><br>",0,setup,NA,NA,NA,NA,cutp_exbj_gwmv,NA
4157.000000006519,NA,html-button-response,5,57682,0.0-3.0-2.0,"<p>Which box do you think Dax was looking in when he said<br><i>""Toma zem zorp bidaku midu osh gipu!""</i>?</p><div style='width: 700px;'></div>",0,test,entropy,complex,0,NA,cutp_exbj_gwmv,1
11897.000000113621,NA,survey-text,6,69584,0.0-4.0,NA,NA,comment,NA,NA,NA,dox,cutp_exbj_gwmv,NA
2896.999999997206,NA,html-button-response,7,72482,0.0-5.0,<p>This is the end of the study. Thank you for participating!</p>,0,NA,NA,NA,NA,NA,cutp_exbj_gwmv,NA
3561.744999984512,recaptcha.html,external-html,0,3622,0.0-0.0,NA,NA,NA,NA,NA,NA,NA,djcl_gqcf_uyjd,NA
32515.660000004573,consent/consent.html,external-html,1,36152,0.0-1.0,NA,NA,NA,NA,NA,NA,NA,djcl_gqcf_uyjd,NA
950.1600000075996,NA,html-button-response,2,37110,0.0-2.0,"<p>In this experiment, you will see some aliens talk and make judgments about what they are talking about.",0,setup,NA,NA,NA,NA,djcl_gqcf_uyjd,NA
1708.104999997886,NA,html-button-response,3,40822,0.0-3.0-0.0,"<p>This is Dax the alien. He speaks an alien language.<br><br>He says, <i> ""Difu Dax midaku.""</i><br>That means ""Hello, my name is Dax.""</p><br><div style='width: 700px;'><div style='float: center;'><img src='img/alien1.png' width='250' height='300'></img></div></div><br>",0,setup,NA,NA,NA,NA,djcl_gqcf_uyjd,NA
4573.514999996405,NA,html-button-response,4,45397,0.0-3.0-1.0,"<p>Dax has a box. <br> He opens the box and looks inside. <br><br>Then, Dax says, <i>""Toma!""</i></p><div style='width: 700px;'><div style='float: center;'><img src='img/alien1.png' width='250' height='300'></img></div><div style='float: center;'><img src='img/grey_box.png'></img></div></div><br>",0,setup,NA,NA,NA,NA,djcl_gqcf_uyjd,NA
6835.015000018757,NA,html-button-response,5,52233,0.0-3.0-2.0,"<p>Which box do you think Dax was looking in when he said<br><i>""Toma!""</i>?</p><div style='width: 700px;'></div>",0,test,num,simple,1,NA,djcl_gqcf_uyjd,0
8978.570000006584,NA,survey-text,6,61216,0.0-4.0,NA,NA,comment,NA,NA,NA,it has more circles,djcl_gqcf_uyjd,NA
1738.454999984242,NA,html-button-response,7,62956,0.0-5.0,<p>This is the end of the study. Thank you for participating!</p>,0,NA,NA,NA,NA,NA,djcl_gqcf_uyjd,NA
23510.16500001424,recaptcha.html,external-html,0,23673,0.0-0.0,NA,NA,NA,NA,NA,NA,NA,dkqp_dsyg_pfwl,NA
60087.80000000843,consent/consent.html,external-html,1,84864,0.0-1.0,NA,NA,NA,NA,NA,NA,NA,dkqp_dsyg_pfwl,NA
5923.974999983329,NA,html-button-response,2,90793,0.0-2.0,"<p>In this experiment, you will see some aliens talk and make judgments about what they are talking about.",0,setup,NA,NA,NA,NA,dkqp_dsyg_pfwl,NA
18884.250000002794,NA,html-button-response,3,111682,0.0-3.0-0.0,"<p>This is Dax the alien. He speaks an alien language.<br><br>He says, <i> ""Difu Dax midaku.""</i><br>That means ""Hello, my name is Dax.""</p><br><div style='width: 700px;'><div style='float: center;'><img src='img/alien1.png' width='250' height='300'></img></div></div><br>",0,setup,NA,NA,NA,NA,dkqp_dsyg_pfwl,NA
43692.860000010114,NA,html-button-response,4,155382,0.0-3.0-1.0,"<p>Dax has a box. <br> He opens the box and looks inside. <br><br>Then, Dax says, <i>""Toma!""</i></p><div style='width: 700px;'><div style='float: center;'><img src='img/alien1.png' width='250' height='300'></img></div><div style='float: center;'><img src='img/grey_box.png'></img></div></div><br>",0,setup,NA,NA,NA,NA,dkqp_dsyg_pfwl,NA
23519.77500002249,NA,html-button-response,5,178913,0.0-3.0-2.0,"<p>Which box do you think Dax was looking in when he said<br><i>""Toma!""</i>?</p><div style='width: 700px;'></div>",0,test,type,simple,1,NA,dkqp_dsyg_pfwl,0
26924.729999998817,NA,survey-text,6,205844,0.0-4.0,NA,NA,comment,NA,NA,NA,IT'S THE CORRECT BOX,dkqp_dsyg_pfwl,NA
2636.254999990342,NA,html-button-response,7,208482,0.0-5.0,<p>This is the end of the study. Thank you for participating!</p>,0,NA,NA,NA,NA,NA,dkqp_dsyg_pfwl,NA
3914.7249999223277,recaptcha.html,external-html,0,3942,0.0-0.0,NA,NA,NA,NA,NA,NA,NA,dmqg_gbhm_jfdu,NA
71593.63999997731,consent/consent.html,external-html,1,75574,0.0-1.0,NA,NA,NA,NA,NA,NA,NA,dmqg_gbhm_jfdu,NA
3552.460000035353,NA,html-button-response,2,79131,0.0-2.0,"<p>In this experiment, you will see some aliens talk and make judgments about what they are talking about.",0,setup,NA,NA,NA,NA,dmqg_gbhm_jfdu,NA
23850.520000094548,NA,html-button-response,3,104982,0.0-3.0-0.0,"<p>This is Dax the alien. He speaks an alien language.<br><br>He says, <i> ""Difu Dax midaku.""</i><br>That means ""Hello, my name is Dax.""</p><br><div style='width: 700px;'><div style='float: center;'><img src='img/alien1.png' width='250' height='300'></img></div></div><br>",0,setup,NA,NA,NA,NA,dmqg_gbhm_jfdu,NA
9004.48999996297,NA,html-button-response,4,113992,0.0-3.0-1.0,"<p>Dax has a box. <br> He opens the box and looks inside. <br><br>Then, Dax says, <i>""Toma!""</i></p><div style='width: 700px;'><div style='float: center;'><img src='img/alien1.png' width='250' height='300'></img></div><div style='float: center;'><img src='img/grey_box.png'></img></div></div><br>",0,setup,NA,NA,NA,NA,dmqg_gbhm_jfdu,NA
12325.10999997612,NA,html-button-response,5,126321,0.0-3.0-2.0,"<p>Which box do you think Dax was looking in when he said<br><i>""Toma!""</i>?</p><div style='width: 700px;'></div>",1,test,type,simple,1,NA,dmqg_gbhm_jfdu,1
76022.69000001252,NA,survey-text,6,202349,0.0-4.0,NA,NA,comment,NA,NA,NA,"Because Toma is just one word, so I assume the objects in the box will be one variant instead of a mixture of different types of objects.",dmqg_gbhm_jfdu,NA
2740.8149999100715,NA,html-button-response,7,205091,0.0-5.0,<p>This is the end of the study. Thank you for participating!</p>,0,NA,NA,NA,NA,NA,dmqg_gbhm_jfdu,NA
84863.00000012852,recaptcha.html,external-html,0,85111,0.0-0.0,NA,NA,NA,NA,NA,NA,NA,dpgb_dzjr_azhs,NA
27629.99999988824,consent/consent.html,external-html,1,113544,0.0-1.0,NA,NA,NA,NA,NA,NA,NA,dpgb_dzjr_azhs,NA
5689.999999944121,NA,html-button-response,2,119242,0.0-2.0,"<p>In this experiment, you will see some aliens talk and make judgments about what they are talking about.",0,setup,NA,NA,NA,NA,dpgb_dzjr_azhs,NA
14209.999999962747,NA,html-button-response,3,135460,0.0-3.0-0.0,"<p>This is Dax the alien. He speaks an alien language.<br><br>He says, <i> ""Difu Dax midaku.""</i><br>That means ""Hello, my name is Dax.""</p><br><div style='width: 700px;'><div style='float: center;'><img src='img/alien1.png' width='250' height='300'></img></div></div><br>",0,setup,NA,NA,NA,NA,dpgb_dzjr_azhs,NA
13685.00000005588,NA,html-button-response,4,149150,0.0-3.0-1.0,"<p>Dax has a box. <br> He opens the box and looks inside. <br><br>Then, Dax says, <i>""Toma!""</i></p><div style='width: 700px;'><div style='float: center;'><img src='img/alien1.png' width='250' height='300'></img></div><div style='float: center;'><img src='img/grey_box.png'></img></div></div><br>",0,setup,NA,NA,NA,NA,dpgb_dzjr_azhs,NA
9527.000000001863,NA,html-button-response,5,158680,0.0-3.0-2.0,"<p>Which box do you think Dax was looking in when he said<br><i>""Toma!""</i>?</p><div style='width: 700px;'></div>",0,test,num,simple,1,NA,dpgb_dzjr_azhs,0
29753.000000026077,NA,survey-text,6,188442,0.0-4.0,NA,NA,comment,NA,NA,NA,This is my prediction,dpgb_dzjr_azhs,NA
3094.000000040978,NA,html-button-response,7,191540,0.0-5.0,<p>This is the end of the study. Thank you for participating!</p>,0,NA,NA,NA,NA,NA,dpgb_dzjr_azhs,NA
8951.999999932013,recaptcha.html,external-html,0,9102,0.0-0.0,NA,NA,NA,NA,NA,NA,NA,dwmj_wbil_zqbz,NA
7156.000000075437,consent/consent.html,external-html,1,16331,0.0-1.0,NA,NA,NA,NA,NA,NA,NA,dwmj_wbil_zqbz,NA
1304.9999999348074,NA,html-button-response,2,17646,0.0-2.0,"<p>In this experiment, you will see some aliens talk and make judgments about what they are talking about.",0,setup,NA,NA,NA,NA,dwmj_wbil_zqbz,NA
1508.9999999618158,NA,html-button-response,3,21177,0.0-3.0-0.0,"<p>This is Dax the alien. He speaks an alien language.<br><br>He says, <i> ""Difu Dax midaku.""</i><br>That means ""Hello, my name is Dax.""</p><br><div style='width: 700px;'><div style='float: center;'><img src='img/alien1.png' width='250' height='300'></img></div></div><br>",0,setup,NA,NA,NA,NA,dwmj_wbil_zqbz,NA
2636.999999987893,NA,html-button-response,4,23817,0.0-3.0-1.0,"<p>Dax has a box. <br> He opens the box and looks inside. <br><br>Then, Dax says, <i>""Toma zem zorp bidaku midu osh gipu!""</i></p><div style='width: 700px;'><div style='float: center;'><img src='img/alien1.png' width='250' height='300'></img></div><div style='float: center;'><img src='img/grey_box.png'></img></div></div><br>",0,setup,NA,NA,NA,NA,dwmj_wbil_zqbz,NA
3462.000000057742,NA,html-button-response,5,27280,0.0-3.0-2.0,"<p>Which box do you think Dax was looking in when he said<br><i>""Toma zem zorp bidaku midu osh gipu!""</i>?</p><div style='width: 700px;'></div>",0,test,type,complex,0,NA,dwmj_wbil_zqbz,1
23895.000000018626,NA,survey-text,6,51187,0.0-4.0,NA,NA,comment,NA,NA,NA,Because it said one word o its all are same color so mentioned as one single word,dwmj_wbil_zqbz,NA
2928.000000072643,NA,html-button-response,7,54120,0.0-5.0,<p>This is the end of the study. Thank you for participating!</p>,0,NA,NA,NA,NA,NA,dwmj_wbil_zqbz,NA
6613.475000020117,recaptcha.html,external-html,0,6633,0.0-0.0,NA,NA,NA,NA,NA,NA,NA,egqz_yrrv_wjul,NA
7650.734999915585,consent/consent.html,external-html,1,14291,0.0-1.0,NA,NA,NA,NA,NA,NA,NA,egqz_yrrv_wjul,NA
1532.6550002209842,NA,html-button-response,2,15825,0.0-2.0,"<p>In this experiment, you will see some aliens talk and make judgments about what they are talking about.",0,setup,NA,NA,NA,NA,egqz_yrrv_wjul,NA
14001.070000231266,NA,html-button-response,3,31830,0.0-3.0-0.0,"<p>This is Dax the alien. He speaks an alien language.<br><br>He says, <i> ""Difu Dax midaku.""</i><br>That means ""Hello, my name is Dax.""</p><br><div style='width: 700px;'><div style='float: center;'><img src='img/alien1.png' width='250' height='300'></img></div></div><br>",0,setup,NA,NA,NA,NA,egqz_yrrv_wjul,NA
3338.3549998980016,NA,html-button-response,4,35170,0.0-3.0-1.0,"<p>Dax has a box. <br> He opens the box and looks inside. <br><br>Then, Dax says, <i>""Toma zem zorp bidaku midu osh gipu!""</i></p><div style='width: 700px;'><div style='float: center;'><img src='img/alien1.png' width='250' height='300'></img></div><div style='float: center;'><img src='img/grey_box.png'></img></div></div><br>",0,setup,NA,NA,NA,NA,egqz_yrrv_wjul,NA
9737.454999936745,NA,html-button-response,5,44911,0.0-3.0-2.0,"<p>Which box do you think Dax was looking in when he said<br><i>""Toma zem zorp bidaku midu osh gipu!""</i>?</p><div style='width: 700px;'></div>",1,test,entropy,complex,1,NA,egqz_yrrv_wjul,1
6496.95000005886,NA,survey-text,6,51410,0.0-4.0,NA,NA,comment,NA,NA,NA,Nothing,egqz_yrrv_wjul,NA
1439.049999928102,NA,html-button-response,7,52851,0.0-5.0,<p>This is the end of the study. Thank you for participating!</p>,0,NA,NA,NA,NA,NA,egqz_yrrv_wjul,NA
15251.015000000734,recaptcha.html,external-html,0,15678,0.0-0.0,NA,NA,NA,NA,NA,NA,NA,epft_pibw_frep,NA
14554.195000000618,consent/consent.html,external-html,1,30576,0.0-1.0,NA,NA,NA,NA,NA,NA,NA,epft_pibw_frep,NA
1517.5349999999526,NA,html-button-response,2,32097,0.0-2.0,"<p>In this experiment, you will see some aliens talk and make judgments about what they are talking about.",0,setup,NA,NA,NA,NA,epft_pibw_frep,NA
6658.425000000534,NA,html-button-response,3,40760,0.0-3.0-0.0,"<p>This is Dax the alien. He speaks an alien language.<br><br>He says, <i> ""Difu Dax midaku.""</i><br>That means ""Hello, my name is Dax.""</p><br><div style='width: 700px;'><div style='float: center;'><img src='img/alien1.png' width='250' height='300'></img></div></div><br>",0,setup,NA,NA,NA,NA,epft_pibw_frep,NA
6572.675000000345,NA,html-button-response,4,47336,0.0-3.0-1.0,"<p>Dax has a box. <br> He opens the box and looks inside. <br><br>Then, Dax says, <i>""Toma!""</i></p><div style='width: 700px;'><div style='float: center;'><img src='img/alien1.png' width='250' height='300'></img></div><div style='float: center;'><img src='img/grey_box.png'></img></div></div><br>",0,setup,NA,NA,NA,NA,epft_pibw_frep,NA
12620.684999999867,NA,html-button-response,5,59961,0.0-3.0-2.0,"<p>Which box do you think Dax was looking in when he said<br><i>""Toma!""</i>?</p><div style='width: 700px;'></div>",0,test,type,simple,0,NA,epft_pibw_frep,1
16352.914999999492,NA,survey-text,6,76321,0.0-4.0,NA,NA,comment,NA,NA,NA,guess,epft_pibw_frep,NA
1381.459999999599,NA,html-button-response,7,77704,0.0-5.0,<p>This is the end of the study. Thank you for participating!</p>,0,NA,NA,NA,NA,NA,epft_pibw_frep,NA
12701.224999997066,recaptcha.html,external-html,0,12720,0.0-0.0,NA,NA,NA,NA,NA,NA,NA,etjk_vgrf_ffvs,NA
11296.81999999957,consent/consent.html,external-html,1,25382,0.0-1.0,NA,NA,NA,NA,NA,NA,NA,etjk_vgrf_ffvs,NA
4350.139999998646,NA,html-button-response,2,29735,0.0-2.0,"<p>In this experiment, you will see some aliens talk and make judgments about what they are talking about.",0,setup,NA,NA,NA,NA,etjk_vgrf_ffvs,NA
12916.500000002998,NA,html-button-response,3,44655,0.0-3.0-0.0,"<p>This is Dax the alien. He speaks an alien language.<br><br>He says, <i> ""Difu Dax midaku.""</i><br>That means ""Hello, my name is Dax.""</p><br><div style='width: 700px;'><div style='float: center;'><img src='img/alien1.png' width='250' height='300'></img></div></div><br>",0,setup,NA,NA,NA,NA,etjk_vgrf_ffvs,NA
7269.584999998187,NA,html-button-response,4,51926,0.0-3.0-1.0,"<p>Dax has a box. <br> He opens the box and looks inside. <br><br>Then, Dax says, <i>""Toma zem zorp bidaku midu osh gipu!""</i></p><div style='width: 700px;'><div style='float: center;'><img src='img/alien1.png' width='250' height='300'></img></div><div style='float: center;'><img src='img/grey_box.png'></img></div></div><br>",0,setup,NA,NA,NA,NA,etjk_vgrf_ffvs,NA
7613.835000000108,NA,html-button-response,5,59542,0.0-3.0-2.0,"<p>Which box do you think Dax was looking in when he said<br><i>""Toma zem zorp bidaku midu osh gipu!""</i>?</p><div style='width: 700px;'></div>",0,test,type,complex,0,NA,etjk_vgrf_ffvs,1
21900.8900000008,NA,survey-text,6,81447,0.0-4.0,NA,NA,comment,NA,NA,NA,Because it having lots of different collection,etjk_vgrf_ffvs,NA
2046.214999998483,NA,html-button-response,7,83494,0.0-5.0,<p>This is the end of the study. Thank you for participating!</p>,0,NA,NA,NA,NA,NA,etjk_vgrf_ffvs,NA
14350.420000000668,recaptcha.html,external-html,0,14419,0.0-0.0,NA,NA,NA,NA,NA,NA,NA,eywa_rkqm_jyiu,NA
7506.66000000092,consent/consent.html,external-html,1,21963,0.0-1.0,NA,NA,NA,NA,NA,NA,NA,eywa_rkqm_jyiu,NA
1220.1049999985116,NA,html-button-response,2,23189,0.0-2.0,"<p>In this experiment, you will see some aliens talk and make judgments about what they are talking about.",0,setup,NA,NA,NA,NA,eywa_rkqm_jyiu,NA
1499.5200000012119,NA,html-button-response,3,26699,0.0-3.0-0.0,"<p>This is Dax the alien. He speaks an alien language.<br><br>He says, <i> ""Difu Dax midaku.""</i><br>That means ""Hello, my name is Dax.""</p><br><div style='width: 700px;'><div style='float: center;'><img src='img/alien1.png' width='250' height='300'></img></div></div><br>",0,setup,NA,NA,NA,NA,eywa_rkqm_jyiu,NA
1412.08000000006,NA,html-button-response,4,28115,0.0-3.0-1.0,"<p>Dax has a box. <br> He opens the box and looks inside. <br><br>Then, Dax says, <i>""Toma zem zorp bidaku midu osh gipu!""</i></p><div style='width: 700px;'><div style='float: center;'><img src='img/alien1.png' width='250' height='300'></img></div><div style='float: center;'><img src='img/grey_box.png'></img></div></div><br>",0,setup,NA,NA,NA,NA,eywa_rkqm_jyiu,NA
779.4950000006793,NA,html-button-response,5,28899,0.0-3.0-2.0,"<p>Which box do you think Dax was looking in when he said<br><i>""Toma zem zorp bidaku midu osh gipu!""</i>?</p><div style='width: 700px;'></div>",1,test,num,complex,0,NA,eywa_rkqm_jyiu,0
3154.580000000351,NA,survey-text,6,32063,0.0-4.0,NA,NA,comment,NA,NA,NA,good,eywa_rkqm_jyiu,NA
864.5900000010442,NA,html-button-response,7,32931,0.0-5.0,<p>This is the end of the study. Thank you for participating!</p>,0,NA,NA,NA,NA,NA,eywa_rkqm_jyiu,NA
10144.514999999956,recaptcha.html,external-html,0,10169,0.0-0.0,NA,NA,NA,NA,NA,NA,NA,fcxg_bgnp_mvsz,NA
29497.209999999995,consent/consent.html,external-html,1,41005,0.0-1.0,NA,NA,NA,NA,NA,NA,NA,fcxg_bgnp_mvsz,NA
6882.290000000008,NA,html-button-response,2,47896,0.0-2.0,"<p>In this experiment, you will see some aliens talk and make judgments about what they are talking about.",0,setup,NA,NA,NA,NA,fcxg_bgnp_mvsz,NA
17872.724999999955,NA,html-button-response,3,67773,0.0-3.0-0.0,"<p>This is Dax the alien. He speaks an alien language.<br><br>He says, <i> ""Difu Dax midaku.""</i><br>That means ""Hello, my name is Dax.""</p><br><div style='width: 700px;'><div style='float: center;'><img src='img/alien1.png' width='250' height='300'></img></div></div><br>",0,setup,NA,NA,NA,NA,fcxg_bgnp_mvsz,NA
15333.12999999999,NA,html-button-response,4,83110,0.0-3.0-1.0,"<p>Dax has a box. <br> He opens the box and looks inside. <br><br>Then, Dax says, <i>""Toma!""</i></p><div style='width: 700px;'><div style='float: center;'><img src='img/alien1.png' width='250' height='300'></img></div><div style='float: center;'><img src='img/grey_box.png'></img></div></div><br>",0,setup,NA,NA,NA,NA,fcxg_bgnp_mvsz,NA
18521.899999999965,NA,html-button-response,5,101636,0.0-3.0-2.0,"<p>Which box do you think Dax was looking in when he said<br><i>""Toma!""</i>?</p><div style='width: 700px;'></div>",0,test,entropy,simple,1,NA,fcxg_bgnp_mvsz,0
57793.88500000004,NA,survey-text,6,159461,0.0-4.0,NA,NA,comment,NA,NA,NA,"It has more stars, that may have surprised him",fcxg_bgnp_mvsz,NA
2165.61500000002,NA,html-button-response,7,161629,0.0-5.0,<p>This is the end of the study. Thank you for participating!</p>,0,NA,NA,NA,NA,NA,fcxg_bgnp_mvsz,NA
4721.970000071451,recaptcha.html,external-html,0,4736,0.0-0.0,NA,NA,NA,NA,NA,NA,NA,fljb_fiid_wybh,NA
10395.555000053719,consent/consent.html,external-html,1,15138,0.0-1.0,NA,NA,NA,NA,NA,NA,NA,fljb_fiid_wybh,NA
2734.7849998623133,NA,html-button-response,2,17875,0.0-2.0,"<p>In this experiment, you will see some aliens talk and make judgments about what they are talking about.",0,setup,NA,NA,NA,NA,fljb_fiid_wybh,NA
3955.8699999470264,NA,html-button-response,3,23833,0.0-3.0-0.0,"<p>This is Dax the alien. He speaks an alien language.<br><br>He says, <i> ""Difu Dax midaku.""</i><br>That means ""Hello, my name is Dax.""</p><br><div style='width: 700px;'><div style='float: center;'><img src='img/alien1.png' width='250' height='300'></img></div></div><br>",0,setup,NA,NA,NA,NA,fljb_fiid_wybh,NA
33182.765000034124,NA,html-button-response,4,57018,0.0-3.0-1.0,"<p>Dax has a box. <br> He opens the box and looks inside. <br><br>Then, Dax says, <i>""Toma zem zorp bidaku midu osh gipu!""</i></p><div style='width: 700px;'><div style='float: center;'><img src='img/alien1.png' width='250' height='300'></img></div><div style='float: center;'><img src='img/grey_box.png'></img></div></div><br>",0,setup,NA,NA,NA,NA,fljb_fiid_wybh,NA
57641.34999993257,NA,html-button-response,5,114661,0.0-3.0-2.0,"<p>Which box do you think Dax was looking in when he said<br><i>""Toma zem zorp bidaku midu osh gipu!""</i>?</p><div style='width: 700px;'></div>",0,test,entropy,complex,1,NA,fljb_fiid_wybh,0
137078.42499995604,NA,survey-text,6,251742,0.0-4.0,NA,NA,comment,NA,NA,NA,"It contained more items. The alien response seemed complex enough to represent a relationship between the two types of items. But, of course, there isn't enough information to choose.",fljb_fiid_wybh,NA
1769.6650000289083,NA,html-button-response,7,253512,0.0-5.0,<p>This is the end of the study. Thank you for participating!</p>,0,NA,NA,NA,NA,NA,fljb_fiid_wybh,NA
29091.589999999997,recaptcha.html,external-html,0,29116,0.0-0.0,NA,NA,NA,NA,NA,NA,NA,frpe_tsbc_kbit,NA
128874.21499999982,consent/consent.html,external-html,1,159708,0.0-1.0,NA,NA,NA,NA,NA,NA,NA,frpe_tsbc_kbit,NA
6150.175000002491,NA,html-button-response,2,165860,0.0-2.0,"<p>In this experiment, you will see some aliens talk and make judgments about what they are talking about.",0,setup,NA,NA,NA,NA,frpe_tsbc_kbit,NA
9301.210000001447,NA,html-button-response,3,177172,0.0-3.0-0.0,"<p>This is Dax the alien. He speaks an alien language.<br><br>He says, <i> ""Difu Dax midaku.""</i><br>That means ""Hello, my name is Dax.""</p><br><div style='width: 700px;'><div style='float: center;'><img src='img/alien1.png' width='250' height='300'></img></div></div><br>",0,setup,NA,NA,NA,NA,frpe_tsbc_kbit,NA
4261.790000000474,NA,html-button-response,4,181436,0.0-3.0-1.0,"<p>Dax has a box. <br> He opens the box and looks inside. <br><br>Then, Dax says, <i>""Toma!""</i></p><div style='width: 700px;'><div style='float: center;'><img src='img/alien1.png' width='250' height='300'></img></div><div style='float: center;'><img src='img/grey_box.png'></img></div></div><br>",0,setup,NA,NA,NA,NA,frpe_tsbc_kbit,NA
8134.099999999307,NA,html-button-response,5,189572,0.0-3.0-2.0,"<p>Which box do you think Dax was looking in when he said<br><i>""Toma!""</i>?</p><div style='width: 700px;'></div>",0,test,entropy,simple,0,NA,frpe_tsbc_kbit,1
18989.42999999781,NA,survey-text,6,208564,0.0-4.0,NA,NA,comment,NA,NA,NA,more colorful,frpe_tsbc_kbit,NA
3038.0549999972573,NA,html-button-response,7,211604,0.0-5.0,<p>This is the end of the study. Thank you for participating!</p>,0,NA,NA,NA,NA,NA,frpe_tsbc_kbit,NA
18258.020000001125,recaptcha.html,external-html,0,18316,0.0-0.0,NA,NA,NA,NA,NA,NA,NA,fyxw_glgi_czee,NA
10758.950000001278,consent/consent.html,external-html,1,30761,0.0-1.0,NA,NA,NA,NA,NA,NA,NA,fyxw_glgi_czee,NA
1259.0500000005704,NA,html-button-response,2,32026,0.0-2.0,"<p>In this experiment, you will see some aliens talk and make judgments about what they are talking about.",0,setup,NA,NA,NA,NA,fyxw_glgi_czee,NA
7234.735000000001,NA,html-button-response,3,41264,0.0-3.0-0.0,"<p>This is Dax the alien. He speaks an alien language.<br><br>He says, <i> ""Difu Dax midaku.""</i><br>That means ""Hello, my name is Dax.""</p><br><div style='width: 700px;'><div style='float: center;'><img src='img/alien1.png' width='250' height='300'></img></div></div><br>",0,setup,NA,NA,NA,NA,fyxw_glgi_czee,NA
5250.535000001037,NA,html-button-response,4,46520,0.0-3.0-1.0,"<p>Dax has a box. <br> He opens the box and looks inside. <br><br>Then, Dax says, <i>""Toma zem zorp bidaku midu osh gipu!""</i></p><div style='width: 700px;'><div style='float: center;'><img src='img/alien1.png' width='250' height='300'></img></div><div style='float: center;'><img src='img/grey_box.png'></img></div></div><br>",0,setup,NA,NA,NA,NA,fyxw_glgi_czee,NA
5442.414999999528,NA,html-button-response,5,51968,0.0-3.0-2.0,"<p>Which box do you think Dax was looking in when he said<br><i>""Toma zem zorp bidaku midu osh gipu!""</i>?</p><div style='width: 700px;'></div>",1,test,num,complex,1,NA,fyxw_glgi_czee,1
27536.37499999968,NA,survey-text,6,79515,0.0-4.0,NA,NA,comment,NA,NA,NA,wonderful,fyxw_glgi_czee,NA
2261.1199999992095,NA,html-button-response,7,81780,0.0-5.0,<p>This is the end of the study. Thank you for participating!</p>,0,NA,NA,NA,NA,NA,fyxw_glgi_czee,NA
14313.925000140443,recaptcha.html,external-html,0,14446,0.0-0.0,NA,NA,NA,NA,NA,NA,NA,geum_qcye_vuir,NA
17115.72999996133,consent/consent.html,external-html,1,31938,0.0-1.0,NA,NA,NA,NA,NA,NA,NA,geum_qcye_vuir,NA
5334.590000100434,NA,html-button-response,2,37276,0.0-2.0,"<p>In this experiment, you will see some aliens talk and make judgments about what they are talking about.",0,setup,NA,NA,NA,NA,geum_qcye_vuir,NA
33059.780000010505,NA,html-button-response,3,72313,0.0-3.0-0.0,"<p>This is Dax the alien. He speaks an alien language.<br><br>He says, <i> ""Difu Dax midaku.""</i><br>That means ""Hello, my name is Dax.""</p><br><div style='width: 700px;'><div style='float: center;'><img src='img/alien1.png' width='250' height='300'></img></div></div><br>",0,setup,NA,NA,NA,NA,geum_qcye_vuir,NA
4644.865000154823,NA,html-button-response,4,76960,0.0-3.0-1.0,"<p>Dax has a box. <br> He opens the box and looks inside. <br><br>Then, Dax says, <i>""Toma!""</i></p><div style='width: 700px;'><div style='float: center;'><img src='img/alien1.png' width='250' height='300'></img></div><div style='float: center;'><img src='img/grey_box.png'></img></div></div><br>",0,setup,NA,NA,NA,NA,geum_qcye_vuir,NA
7212.689999956638,NA,html-button-response,5,84176,0.0-3.0-2.0,"<p>Which box do you think Dax was looking in when he said<br><i>""Toma!""</i>?</p><div style='width: 700px;'></div>",0,test,num,simple,0,NA,geum_qcye_vuir,1
67518.00500019453,NA,survey-text,6,151665,0.0-4.0,NA,NA,comment,NA,NA,NA,I THINK HE MAY CHOSE THIS,geum_qcye_vuir,NA
1710.0400000344962,NA,html-button-response,7,153376,0.0-5.0,<p>This is the end of the study. Thank you for participating!</p>,0,NA,NA,NA,NA,NA,geum_qcye_vuir,NA
33677.24500002805,recaptcha.html,external-html,0,33765,0.0-0.0,NA,NA,NA,NA,NA,NA,NA,ggdj_awnj_niak,NA
10098.145000054501,consent/consent.html,external-html,1,44104,0.0-1.0,NA,NA,NA,NA,NA,NA,NA,ggdj_awnj_niak,NA
1432.5449999887496,NA,html-button-response,2,45543,0.0-2.0,"<p>In this experiment, you will see some aliens talk and make judgments about what they are talking about.",0,setup,NA,NA,NA,NA,ggdj_awnj_niak,NA
9683.70000005234,NA,html-button-response,3,57229,0.0-3.0-0.0,"<p>This is Dax the alien. He speaks an alien language.<br><br>He says, <i> ""Difu Dax midaku.""</i><br>That means ""Hello, my name is Dax.""</p><br><div style='width: 700px;'><div style='float: center;'><img src='img/alien1.png' width='250' height='300'></img></div></div><br>",0,setup,NA,NA,NA,NA,ggdj_awnj_niak,NA
6668.880000011995,NA,html-button-response,4,63900,0.0-3.0-1.0,"<p>Dax has a box. <br> He opens the box and looks inside. <br><br>Then, Dax says, <i>""Toma zem zorp bidaku midu osh gipu!""</i></p><div style='width: 700px;'><div style='float: center;'><img src='img/alien1.png' width='250' height='300'></img></div><div style='float: center;'><img src='img/grey_box.png'></img></div></div><br>",0,setup,NA,NA,NA,NA,ggdj_awnj_niak,NA
5551.68000003323,NA,html-button-response,5,69454,0.0-3.0-2.0,"<p>Which box do you think Dax was looking in when he said<br><i>""Toma zem zorp bidaku midu osh gipu!""</i>?</p><div style='width: 700px;'></div>",0,test,entropy,complex,0,NA,ggdj_awnj_niak,1
11990.205000038259,NA,survey-text,6,81448,0.0-4.0,NA,NA,comment,NA,NA,NA,It was just a random pick. I don't know how to infer what the alien said.,ggdj_awnj_niak,NA
1092.280000098981,NA,html-button-response,7,82541,0.0-5.0,<p>This is the end of the study. Thank you for participating!</p>,0,NA,NA,NA,NA,NA,ggdj_awnj_niak,NA
16677.00000014156,recaptcha.html,external-html,0,16758,0.0-0.0,NA,NA,NA,NA,NA,NA,NA,giuk_ries_wjqi,NA
11002.000000094995,consent/consent.html,external-html,1,27781,0.0-1.0,NA,NA,NA,NA,NA,NA,NA,giuk_ries_wjqi,NA
2601.0000000242144,NA,html-button-response,2,30390,0.0-2.0,"<p>In this experiment, you will see some aliens talk and make judgments about what they are talking about.",0,setup,NA,NA,NA,NA,giuk_ries_wjqi,NA
2695.9999999962747,NA,html-button-response,3,35091,0.0-3.0-0.0,"<p>This is Dax the alien. He speaks an alien language.<br><br>He says, <i> ""Difu Dax midaku.""</i><br>That means ""Hello, my name is Dax.""</p><br><div style='width: 700px;'><div style='float: center;'><img src='img/alien1.png' width='250' height='300'></img></div></div><br>",0,setup,NA,NA,NA,NA,giuk_ries_wjqi,NA
2432.0000000298023,NA,html-button-response,4,37529,0.0-3.0-1.0,"<p>Dax has a box. <br> He opens the box and looks inside. <br><br>Then, Dax says, <i>""Toma!""</i></p><div style='width: 700px;'><div style='float: center;'><img src='img/alien1.png' width='250' height='300'></img></div><div style='float: center;'><img src='img/grey_box.png'></img></div></div><br>",0,setup,NA,NA,NA,NA,giuk_ries_wjqi,NA
2152.0000000018626,NA,html-button-response,5,39686,0.0-3.0-2.0,"<p>Which box do you think Dax was looking in when he said<br><i>""Toma!""</i>?</p><div style='width: 700px;'></div>",1,test,num,simple,0,NA,giuk_ries_wjqi,0
8938.000000081956,NA,survey-text,6,48631,0.0-4.0,NA,NA,comment,NA,NA,NA,wonderful,giuk_ries_wjqi,NA
1777.9999999329448,NA,html-button-response,7,50413,0.0-5.0,<p>This is the end of the study. Thank you for participating!</p>,0,NA,NA,NA,NA,NA,giuk_ries_wjqi,NA
10627.850000048056,recaptcha.html,external-html,0,10694,0.0-0.0,NA,NA,NA,NA,NA,NA,NA,gmyp_nsms_caip,NA
9186.549999983981,consent/consent.html,external-html,1,20565,0.0-1.0,NA,NA,NA,NA,NA,NA,NA,gmyp_nsms_caip,NA
1384.8250000737607,NA,html-button-response,2,21958,0.0-2.0,"<p>In this experiment, you will see some aliens talk and make judgments about what they are talking about.",0,setup,NA,NA,NA,NA,gmyp_nsms_caip,NA
7142.534999875352,NA,html-button-response,3,31110,0.0-3.0-0.0,"<p>This is Dax the alien. He speaks an alien language.<br><br>He says, <i> ""Difu Dax midaku.""</i><br>That means ""Hello, my name is Dax.""</p><br><div style='width: 700px;'><div style='float: center;'><img src='img/alien1.png' width='250' height='300'></img></div></div><br>",0,setup,NA,NA,NA,NA,gmyp_nsms_caip,NA
8023.240000009537,NA,html-button-response,4,39141,0.0-3.0-1.0,"<p>Dax has a box. <br> He opens the box and looks inside. <br><br>Then, Dax says, <i>""Toma zem zorp bidaku midu osh gipu!""</i></p><div style='width: 700px;'><div style='float: center;'><img src='img/alien1.png' width='250' height='300'></img></div><div style='float: center;'><img src='img/grey_box.png'></img></div></div><br>",0,setup,NA,NA,NA,NA,gmyp_nsms_caip,NA
4557.660000165924,NA,html-button-response,5,43705,0.0-3.0-2.0,"<p>Which box do you think Dax was looking in when he said<br><i>""Toma zem zorp bidaku midu osh gipu!""</i>?</p><div style='width: 700px;'></div>",0,test,type,complex,1,NA,gmyp_nsms_caip,0
5899.3599999230355,NA,survey-text,6,49616,0.0-4.0,NA,NA,comment,NA,NA,NA,it looks better,gmyp_nsms_caip,NA
1546.4999999385327,NA,html-button-response,7,51166,0.0-5.0,<p>This is the end of the study. Thank you for participating!</p>,0,NA,NA,NA,NA,NA,gmyp_nsms_caip,NA
3755.845000036061,recaptcha.html,external-html,0,3769,0.0-0.0,NA,NA,NA,NA,NA,NA,NA,gpfn_flgi_eizt,NA
9315.694999997504,consent/consent.html,external-html,1,13295,0.0-1.0,NA,NA,NA,NA,NA,NA,NA,gpfn_flgi_eizt,NA
3816.28999998793,NA,html-button-response,2,17113,0.0-2.0,"<p>In this experiment, you will see some aliens talk and make judgments about what they are talking about.",0,setup,NA,NA,NA,NA,gpfn_flgi_eizt,NA
7804.6399999875575,NA,html-button-response,3,26920,0.0-3.0-0.0,"<p>This is Dax the alien. He speaks an alien language.<br><br>He says, <i> ""Difu Dax midaku.""</i><br>That means ""Hello, my name is Dax.""</p><br><div style='width: 700px;'><div style='float: center;'><img src='img/alien1.png' width='250' height='300'></img></div></div><br>",0,setup,NA,NA,NA,NA,gpfn_flgi_eizt,NA
21232.79999999795,NA,html-button-response,4,48154,0.0-3.0-1.0,"<p>Dax has a box. <br> He opens the box and looks inside. <br><br>Then, Dax says, <i>""Toma zem zorp bidaku midu osh gipu!""</i></p><div style='width: 700px;'><div style='float: center;'><img src='img/alien1.png' width='250' height='300'></img></div><div style='float: center;'><img src='img/grey_box.png'></img></div></div><br>",0,setup,NA,NA,NA,NA,gpfn_flgi_eizt,NA
11637.895000050776,NA,html-button-response,5,59794,0.0-3.0-2.0,"<p>Which box do you think Dax was looking in when he said<br><i>""Toma zem zorp bidaku midu osh gipu!""</i>?</p><div style='width: 700px;'></div>",1,test,type,complex,0,NA,gpfn_flgi_eizt,0
29882.64500000514,NA,survey-text,6,89680,0.0-4.0,NA,NA,comment,NA,NA,NA,The box had different items and Dax used a lot of words.,gpfn_flgi_eizt,NA
1690.1350000407547,NA,html-button-response,7,91371,0.0-5.0,<p>This is the end of the study. Thank you for participating!</p>,0,NA,NA,NA,NA,NA,gpfn_flgi_eizt,NA
4643.019999999979,recaptcha.html,external-html,0,4664,0.0-0.0,NA,NA,NA,NA,NA,NA,NA,grki_tjyz_pcwh,NA
16218.894999999975,consent/consent.html,external-html,1,21000,0.0-1.0,NA,NA,NA,NA,NA,NA,NA,grki_tjyz_pcwh,NA
2478.399999999965,NA,html-button-response,2,23481,0.0-2.0,"<p>In this experiment, you will see some aliens talk and make judgments about what they are talking about.",0,setup,NA,NA,NA,NA,grki_tjyz_pcwh,NA
5192.530000000035,NA,html-button-response,3,30680,0.0-3.0-0.0,"<p>This is Dax the alien. He speaks an alien language.<br><br>He says, <i> ""Difu Dax midaku.""</i><br>That means ""Hello, my name is Dax.""</p><br><div style='width: 700px;'><div style='float: center;'><img src='img/alien1.png' width='250' height='300'></img></div></div><br>",0,setup,NA,NA,NA,NA,grki_tjyz_pcwh,NA
4389.9750000000495,NA,html-button-response,4,35072,0.0-3.0-1.0,"<p>Dax has a box. <br> He opens the box and looks inside. <br><br>Then, Dax says, <i>""Toma!""</i></p><div style='width: 700px;'><div style='float: center;'><img src='img/alien1.png' width='250' height='300'></img></div><div style='float: center;'><img src='img/grey_box.png'></img></div></div><br>",0,setup,NA,NA,NA,NA,grki_tjyz_pcwh,NA
4869.979999999938,NA,html-button-response,5,39944,0.0-3.0-2.0,"<p>Which box do you think Dax was looking in when he said<br><i>""Toma!""</i>?</p><div style='width: 700px;'></div>",1,test,num,simple,0,NA,grki_tjyz_pcwh,0
45149.09999999986,NA,survey-text,6,85097,0.0-4.0,NA,NA,comment,NA,NA,NA,"Toma! had an exclamation point, and the alien was smiling, so I must assume that he has encountered a good suprise. In all cases I know of, a box that is mostly empty is less of a good suprise than a full box.",grki_tjyz_pcwh,NA
1542.5400000001391,NA,html-button-response,7,86641,0.0-5.0,<p>This is the end of the study. Thank you for participating!</p>,0,NA,NA,NA,NA,NA,grki_tjyz_pcwh,NA
4199.174999957904,recaptcha.html,external-html,0,4215,0.0-0.0,NA,NA,NA,NA,NA,NA,NA,gwwv_ikgk_yxlk,NA
13866.810000035912,consent/consent.html,external-html,1,18096,0.0-1.0,NA,NA,NA,NA,NA,NA,NA,gwwv_ikgk_yxlk,NA
1811.6800000425428,NA,html-button-response,2,19911,0.0-2.0,"<p>In this experiment, you will see some aliens talk and make judgments about what they are talking about.",0,setup,NA,NA,NA,NA,gwwv_ikgk_yxlk,NA
1930.3599998820573,NA,html-button-response,3,23848,0.0-3.0-0.0,"<p>This is Dax the alien. He speaks an alien language.<br><br>He says, <i> ""Difu Dax midaku.""</i><br>That means ""Hello, my name is Dax.""</p><br><div style='width: 700px;'><div style='float: center;'><img src='img/alien1.png' width='250' height='300'></img></div></div><br>",0,setup,NA,NA,NA,NA,gwwv_ikgk_yxlk,NA
21847.615000093356,NA,html-button-response,4,45697,0.0-3.0-1.0,"<p>Dax has a box. <br> He opens the box and looks inside. <br><br>Then, Dax says, <i>""Toma zem zorp bidaku midu osh gipu!""</i></p><div style='width: 700px;'><div style='float: center;'><img src='img/alien1.png' width='250' height='300'></img></div><div style='float: center;'><img src='img/grey_box.png'></img></div></div><br>",0,setup,NA,NA,NA,NA,gwwv_ikgk_yxlk,NA
21289.120000088587,NA,html-button-response,5,66989,0.0-3.0-2.0,"<p>Which box do you think Dax was looking in when he said<br><i>""Toma zem zorp bidaku midu osh gipu!""</i>?</p><div style='width: 700px;'></div>",1,test,num,complex,1,NA,gwwv_ikgk_yxlk,1
17743.959999876097,NA,survey-text,6,84736,0.0-4.0,NA,NA,comment,NA,NA,NA,He had a lot of words to say about that box. ,gwwv_ikgk_yxlk,NA
946.3749998249114,NA,html-button-response,7,85684,0.0-5.0,<p>This is the end of the study. Thank you for participating!</p>,0,NA,NA,NA,NA,NA,gwwv_ikgk_yxlk,NA
18059.38500002958,recaptcha.html,external-html,0,18396,0.0-0.0,NA,NA,NA,NA,NA,NA,NA,hbwf_gwjg_ktky,NA
27099.92000000784,consent/consent.html,external-html,1,46876,0.0-1.0,NA,NA,NA,NA,NA,NA,NA,hbwf_gwjg_ktky,NA
2040.19500000868,NA,html-button-response,2,48925,0.0-2.0,"<p>In this experiment, you will see some aliens talk and make judgments about what they are talking about.",0,setup,NA,NA,NA,NA,hbwf_gwjg_ktky,NA
26858.355000033043,NA,html-button-response,3,77790,0.0-3.0-0.0,"<p>This is Dax the alien. He speaks an alien language.<br><br>He says, <i> ""Difu Dax midaku.""</i><br>That means ""Hello, my name is Dax.""</p><br><div style='width: 700px;'><div style='float: center;'><img src='img/alien1.png' width='250' height='300'></img></div></div><br>",0,setup,NA,NA,NA,NA,hbwf_gwjg_ktky,NA
3291.5150000480935,NA,html-button-response,4,81088,0.0-3.0-1.0,"<p>Dax has a box. <br> He opens the box and looks inside. <br><br>Then, Dax says, <i>""Toma!""</i></p><div style='width: 700px;'><div style='float: center;'><img src='img/alien1.png' width='250' height='300'></img></div><div style='float: center;'><img src='img/grey_box.png'></img></div></div><br>",0,setup,NA,NA,NA,NA,hbwf_gwjg_ktky,NA
9820.234999991953,NA,html-button-response,5,90914,0.0-3.0-2.0,"<p>Which box do you think Dax was looking in when he said<br><i>""Toma!""</i>?</p><div style='width: 700px;'></div>",1,test,num,simple,1,NA,hbwf_gwjg_ktky,1
7206.650000007357,NA,survey-text,6,98137,0.0-4.0,NA,NA,comment,NA,NA,NA,its correct,hbwf_gwjg_ktky,NA
2407.8999999910593,NA,html-button-response,7,100549,0.0-5.0,<p>This is the end of the study. Thank you for participating!</p>,0,NA,NA,NA,NA,NA,hbwf_gwjg_ktky,NA
21634.27500007674,recaptcha.html,external-html,0,21647,0.0-0.0,NA,NA,NA,NA,NA,NA,NA,hgzk_igmm_tjnb,NA
31754.650000017136,consent/consent.html,external-html,1,53419,0.0-1.0,NA,NA,NA,NA,NA,NA,NA,hgzk_igmm_tjnb,NA
1716.444999910891,NA,html-button-response,2,55138,0.0-2.0,"<p>In this experiment, you will see some aliens talk and make judgments about what they are talking about.",0,setup,NA,NA,NA,NA,hgzk_igmm_tjnb,NA
5746.684999903664,NA,html-button-response,3,62890,0.0-3.0-0.0,"<p>This is Dax the alien. He speaks an alien language.<br><br>He says, <i> ""Difu Dax midaku.""</i><br>That means ""Hello, my name is Dax.""</p><br><div style='width: 700px;'><div style='float: center;'><img src='img/alien1.png' width='250' height='300'></img></div></div><br>",0,setup,NA,NA,NA,NA,hgzk_igmm_tjnb,NA
6699.264999944717,NA,html-button-response,4,69591,0.0-3.0-1.0,"<p>Dax has a box. <br> He opens the box and looks inside. <br><br>Then, Dax says, <i>""Toma!""</i></p><div style='width: 700px;'><div style='float: center;'><img src='img/alien1.png' width='250' height='300'></img></div><div style='float: center;'><img src='img/grey_box.png'></img></div></div><br>",0,setup,NA,NA,NA,NA,hgzk_igmm_tjnb,NA
4766.8099999427795,NA,html-button-response,5,74360,0.0-3.0-2.0,"<p>Which box do you think Dax was looking in when he said<br><i>""Toma!""</i>?</p><div style='width: 700px;'></div>",1,test,num,simple,0,NA,hgzk_igmm_tjnb,0
29418.42500003986,NA,survey-text,6,103783,0.0-4.0,NA,NA,comment,NA,NA,NA,"The exclamation point implied he saw something unexpected, like many dots.",hgzk_igmm_tjnb,NA
3271.354999858886,NA,html-button-response,7,107056,0.0-5.0,<p>This is the end of the study. Thank you for participating!</p>,0,NA,NA,NA,NA,NA,hgzk_igmm_tjnb,NA
14549.995000000308,recaptcha.html,external-html,0,14629,0.0-0.0,NA,NA,NA,NA,NA,NA,NA,hlhp_iazx_doud,NA
16406.79999999975,consent/consent.html,external-html,1,31190,0.0-1.0,NA,NA,NA,NA,NA,NA,NA,hlhp_iazx_doud,NA
1745.5300000001444,NA,html-button-response,2,32950,0.0-2.0,"<p>In this experiment, you will see some aliens talk and make judgments about what they are talking about.",0,setup,NA,NA,NA,NA,hlhp_iazx_doud,NA
3302.615000000056,NA,html-button-response,3,38256,0.0-3.0-0.0,"<p>This is Dax the alien. He speaks an alien language.<br><br>He says, <i> ""Difu Dax midaku.""</i><br>That means ""Hello, my name is Dax.""</p><br><div style='width: 700px;'><div style='float: center;'><img src='img/alien1.png' width='250' height='300'></img></div></div><br>",0,setup,NA,NA,NA,NA,hlhp_iazx_doud,NA
2914.9999999999563,NA,html-button-response,4,41178,0.0-3.0-1.0,"<p>Dax has a box. <br> He opens the box and looks inside. <br><br>Then, Dax says, <i>""Toma zem zorp bidaku midu osh gipu!""</i></p><div style='width: 700px;'><div style='float: center;'><img src='img/alien1.png' width='250' height='300'></img></div><div style='float: center;'><img src='img/grey_box.png'></img></div></div><br>",0,setup,NA,NA,NA,NA,hlhp_iazx_doud,NA
3030.4300000002477,NA,html-button-response,5,44215,0.0-3.0-2.0,"<p>Which box do you think Dax was looking in when he said<br><i>""Toma zem zorp bidaku midu osh gipu!""</i>?</p><div style='width: 700px;'></div>",0,test,type,complex,1,NA,hlhp_iazx_doud,0
21339.370000000148,NA,survey-text,6,65574,0.0-4.0,NA,NA,comment,NA,NA,NA,It looks like a goofy thing this alien would pick out,hlhp_iazx_doud,NA
1687.0800000001618,NA,html-button-response,7,67264,0.0-5.0,<p>This is the end of the study. Thank you for participating!</p>,0,NA,NA,NA,NA,NA,hlhp_iazx_doud,NA
10858.690000000934,recaptcha.html,external-html,0,10867,0.0-0.0,NA,NA,NA,NA,NA,NA,NA,ikom_lblu_alnv,NA
11979.319999998552,consent/consent.html,external-html,1,25102,0.0-1.0,NA,NA,NA,NA,NA,NA,NA,ikom_lblu_alnv,NA
4691.2650000012945,NA,html-button-response,2,29795,0.0-2.0,"<p>In this experiment, you will see some aliens talk and make judgments about what they are talking about.",0,setup,NA,NA,NA,NA,ikom_lblu_alnv,NA
10230.750000002445,NA,html-button-response,3,42036,0.0-3.0-0.0,"<p>This is Dax the alien. He speaks an alien language.<br><br>He says, <i> ""Difu Dax midaku.""</i><br>That means ""Hello, my name is Dax.""</p><br><div style='width: 700px;'><div style='float: center;'><img src='img/alien1.png' width='250' height='300'></img></div></div><br>",0,setup,NA,NA,NA,NA,ikom_lblu_alnv,NA
8318.814999998722,NA,html-button-response,4,50356,0.0-3.0-1.0,"<p>Dax has a box. <br> He opens the box and looks inside. <br><br>Then, Dax says, <i>""Toma zem zorp bidaku midu osh gipu!""</i></p><div style='width: 700px;'><div style='float: center;'><img src='img/alien1.png' width='250' height='300'></img></div><div style='float: center;'><img src='img/grey_box.png'></img></div></div><br>",0,setup,NA,NA,NA,NA,ikom_lblu_alnv,NA
12477.174999999988,NA,html-button-response,5,62835,0.0-3.0-2.0,"<p>Which box do you think Dax was looking in when he said<br><i>""Toma zem zorp bidaku midu osh gipu!""</i>?</p><div style='width: 700px;'></div>",1,test,num,complex,0,NA,ikom_lblu_alnv,0
23046.09000000346,NA,survey-text,6,85884,0.0-4.0,NA,NA,comment,NA,NA,NA,there is something one can view in the box,ikom_lblu_alnv,NA
2102.520000000368,NA,html-button-response,7,87988,0.0-5.0,<p>This is the end of the study. Thank you for participating!</p>,0,NA,NA,NA,NA,NA,ikom_lblu_alnv,NA
11101.999999955297,recaptcha.html,external-html,0,11213,0.0-0.0,NA,NA,NA,NA,NA,NA,NA,ilpd_bdex_btjx,NA
8347.000000067055,consent/consent.html,external-html,1,19582,0.0-1.0,NA,NA,NA,NA,NA,NA,NA,ilpd_bdex_btjx,NA
1244.0000001806766,NA,html-button-response,2,20831,0.0-2.0,"<p>In this experiment, you will see some aliens talk and make judgments about what they are talking about.",0,setup,NA,NA,NA,NA,ilpd_bdex_btjx,NA
1793.00000006333,NA,html-button-response,3,24629,0.0-3.0-0.0,"<p>This is Dax the alien. He speaks an alien language.<br><br>He says, <i> ""Difu Dax midaku.""</i><br>That means ""Hello, my name is Dax.""</p><br><div style='width: 700px;'><div style='float: center;'><img src='img/alien1.png' width='250' height='300'></img></div></div><br>",0,setup,NA,NA,NA,NA,ilpd_bdex_btjx,NA
2329.999999841675,NA,html-button-response,4,26965,0.0-3.0-1.0,"<p>Dax has a box. <br> He opens the box and looks inside. <br><br>Then, Dax says, <i>""Toma zem zorp bidaku midu osh gipu!""</i></p><div style='width: 700px;'><div style='float: center;'><img src='img/alien1.png' width='250' height='300'></img></div><div style='float: center;'><img src='img/grey_box.png'></img></div></div><br>",0,setup,NA,NA,NA,NA,ilpd_bdex_btjx,NA
1260.0000000093132,NA,html-button-response,5,28230,0.0-3.0-2.0,"<p>Which box do you think Dax was looking in when he said<br><i>""Toma zem zorp bidaku midu osh gipu!""</i>?</p><div style='width: 700px;'></div>",1,test,num,complex,1,NA,ilpd_bdex_btjx,1
4126.000000163913,NA,survey-text,6,32369,0.0-4.0,NA,NA,comment,NA,NA,NA,amzing,ilpd_bdex_btjx,NA
1246.0000000428408,NA,html-button-response,7,33621,0.0-5.0,<p>This is the end of the study. Thank you for participating!</p>,0,NA,NA,NA,NA,NA,ilpd_bdex_btjx,NA
4060.8500000089407,recaptcha.html,external-html,0,4085,0.0-0.0,NA,NA,NA,NA,NA,NA,NA,ilzp_aeed_qode,NA
16066.63000001572,consent/consent.html,external-html,1,20187,0.0-1.0,NA,NA,NA,NA,NA,NA,NA,ilzp_aeed_qode,NA
2419.60999998264,NA,html-button-response,2,22610,0.0-2.0,"<p>In this experiment, you will see some aliens talk and make judgments about what they are talking about.",0,setup,NA,NA,NA,NA,ilzp_aeed_qode,NA
11254.16999985464,NA,html-button-response,3,35869,0.0-3.0-0.0,"<p>This is Dax the alien. He speaks an alien language.<br><br>He says, <i> ""Difu Dax midaku.""</i><br>That means ""Hello, my name is Dax.""</p><br><div style='width: 700px;'><div style='float: center;'><img src='img/alien1.png' width='250' height='300'></img></div></div><br>",0,setup,NA,NA,NA,NA,ilzp_aeed_qode,NA
5602.554999990389,NA,html-button-response,4,41474,0.0-3.0-1.0,"<p>Dax has a box. <br> He opens the box and looks inside. <br><br>Then, Dax says, <i>""Toma!""</i></p><div style='width: 700px;'><div style='float: center;'><img src='img/alien1.png' width='250' height='300'></img></div><div style='float: center;'><img src='img/grey_box.png'></img></div></div><br>",0,setup,NA,NA,NA,NA,ilzp_aeed_qode,NA
10356.424999888986,NA,html-button-response,5,51835,0.0-3.0-2.0,"<p>Which box do you think Dax was looking in when he said<br><i>""Toma!""</i>?</p><div style='width: 700px;'></div>",0,test,entropy,simple,1,NA,ilzp_aeed_qode,0
11413.824999937788,NA,survey-text,6,63255,0.0-4.0,NA,NA,comment,NA,NA,NA,More blue orbs,ilzp_aeed_qode,NA
1313.300000037998,NA,html-button-response,7,64570,0.0-5.0,<p>This is the end of the study. Thank you for participating!</p>,0,NA,NA,NA,NA,NA,ilzp_aeed_qode,NA
10014.985000016168,recaptcha.html,external-html,0,10156,0.0-0.0,NA,NA,NA,NA,NA,NA,NA,ioxa_qlgz_erkv,NA
23211.23500005342,consent/consent.html,external-html,1,33883,0.0-1.0,NA,NA,NA,NA,NA,NA,NA,ioxa_qlgz_erkv,NA
1653.8149998523295,NA,html-button-response,2,35539,0.0-2.0,"<p>In this experiment, you will see some aliens talk and make judgments about what they are talking about.",0,setup,NA,NA,NA,NA,ioxa_qlgz_erkv,NA
4656.369999982417,NA,html-button-response,3,42198,0.0-3.0-0.0,"<p>This is Dax the alien. He speaks an alien language.<br><br>He says, <i> ""Difu Dax midaku.""</i><br>That means ""Hello, my name is Dax.""</p><br><div style='width: 700px;'><div style='float: center;'><img src='img/alien1.png' width='250' height='300'></img></div></div><br>",0,setup,NA,NA,NA,NA,ioxa_qlgz_erkv,NA
4776.4850000385195,NA,html-button-response,4,46978,0.0-3.0-1.0,"<p>Dax has a box. <br> He opens the box and looks inside. <br><br>Then, Dax says, <i>""Toma!""</i></p><div style='width: 700px;'><div style='float: center;'><img src='img/alien1.png' width='250' height='300'></img></div><div style='float: center;'><img src='img/grey_box.png'></img></div></div><br>",0,setup,NA,NA,NA,NA,ioxa_qlgz_erkv,NA
10036.390000022948,NA,html-button-response,5,57017,0.0-3.0-2.0,"<p>Which box do you think Dax was looking in when he said<br><i>""Toma!""</i>?</p><div style='width: 700px;'></div>",1,test,type,simple,0,NA,ioxa_qlgz_erkv,0
13227.775000035763,NA,survey-text,6,70249,0.0-4.0,NA,NA,comment,NA,NA,NA,Nothing,ioxa_qlgz_erkv,NA
3408.5800000466406,NA,html-button-response,7,73659,0.0-5.0,<p>This is the end of the study. Thank you for participating!</p>,0,NA,NA,NA,NA,NA,ioxa_qlgz_erkv,NA
14023.999999975786,recaptcha.html,external-html,0,14209,0.0-0.0,NA,NA,NA,NA,NA,NA,NA,jdtg_xlqi_etka,NA
11527.000000001863,consent/consent.html,external-html,1,26051,0.0-1.0,NA,NA,NA,NA,NA,NA,NA,jdtg_xlqi_etka,NA
1918.00000006333,NA,html-button-response,2,27976,0.0-2.0,"<p>In this experiment, you will see some aliens talk and make judgments about what they are talking about.",0,setup,NA,NA,NA,NA,jdtg_xlqi_etka,NA
3254.00000018999,NA,html-button-response,3,33235,0.0-3.0-0.0,"<p>This is Dax the alien. He speaks an alien language.<br><br>He says, <i> ""Difu Dax midaku.""</i><br>That means ""Hello, my name is Dax.""</p><br><div style='width: 700px;'><div style='float: center;'><img src='img/alien1.png' width='250' height='300'></img></div></div><br>",0,setup,NA,NA,NA,NA,jdtg_xlqi_etka,NA
3804.0000000037253,NA,html-button-response,4,37043,0.0-3.0-1.0,"<p>Dax has a box. <br> He opens the box and looks inside. <br><br>Then, Dax says, <i>""Toma!""</i></p><div style='width: 700px;'><div style='float: center;'><img src='img/alien1.png' width='250' height='300'></img></div><div style='float: center;'><img src='img/grey_box.png'></img></div></div><br>",0,setup,NA,NA,NA,NA,jdtg_xlqi_etka,NA
1915.000000037253,NA,html-button-response,5,38964,0.0-3.0-2.0,"<p>Which box do you think Dax was looking in when he said<br><i>""Toma!""</i>?</p><div style='width: 700px;'></div>",1,test,entropy,simple,1,NA,jdtg_xlqi_etka,1
10782.999999821186,NA,survey-text,6,49755,0.0-4.0,NA,NA,comment,NA,NA,NA,amzing,jdtg_xlqi_etka,NA
1590.000000083819,NA,html-button-response,7,51348,0.0-5.0,<p>This is the end of the study. Thank you for participating!</p>,0,NA,NA,NA,NA,NA,jdtg_xlqi_etka,NA
14987.925000023097,recaptcha.html,external-html,0,15000,0.0-0.0,NA,NA,NA,NA,NA,NA,NA,jzzg_jhge_nlzs,NA
9860.37000012584,consent/consent.html,external-html,1,24868,0.0-1.0,NA,NA,NA,NA,NA,NA,NA,jzzg_jhge_nlzs,NA
1699.5350001379848,NA,html-button-response,2,26570,0.0-2.0,"<p>In this experiment, you will see some aliens talk and make judgments about what they are talking about.",0,setup,NA,NA,NA,NA,jzzg_jhge_nlzs,NA
2497.5099998991936,NA,html-button-response,3,31078,0.0-3.0-0.0,"<p>This is Dax the alien. He speaks an alien language.<br><br>He says, <i> ""Difu Dax midaku.""</i><br>That means ""Hello, my name is Dax.""</p><br><div style='width: 700px;'><div style='float: center;'><img src='img/alien1.png' width='250' height='300'></img></div></div><br>",0,setup,NA,NA,NA,NA,jzzg_jhge_nlzs,NA
2537.4249999877065,NA,html-button-response,4,33618,0.0-3.0-1.0,"<p>Dax has a box. <br> He opens the box and looks inside. <br><br>Then, Dax says, <i>""Toma zem zorp bidaku midu osh gipu!""</i></p><div style='width: 700px;'><div style='float: center;'><img src='img/alien1.png' width='250' height='300'></img></div><div style='float: center;'><img src='img/grey_box.png'></img></div></div><br>",0,setup,NA,NA,NA,NA,jzzg_jhge_nlzs,NA
2947.8899999521673,NA,html-button-response,5,36568,0.0-3.0-2.0,"<p>Which box do you think Dax was looking in when he said<br><i>""Toma zem zorp bidaku midu osh gipu!""</i>?</p><div style='width: 700px;'></div>",0,test,entropy,complex,1,NA,jzzg_jhge_nlzs,0
24145.399999804795,NA,survey-text,6,60719,0.0-4.0,NA,NA,comment,NA,NA,NA,contain balls and stars,jzzg_jhge_nlzs,NA
2519.3299998063594,NA,html-button-response,7,63240,0.0-5.0,<p>This is the end of the study. Thank you for participating!</p>,0,NA,NA,NA,NA,NA,jzzg_jhge_nlzs,NA
23479.29499996826,recaptcha.html,external-html,0,23495,0.0-0.0,NA,NA,NA,NA,NA,NA,NA,kpmf_mwnw_xwdb,NA
13358.574999962002,consent/consent.html,external-html,1,36861,0.0-1.0,NA,NA,NA,NA,NA,NA,NA,kpmf_mwnw_xwdb,NA
2247.2899998538196,NA,html-button-response,2,39112,0.0-2.0,"<p>In this experiment, you will see some aliens talk and make judgments about what they are talking about.",0,setup,NA,NA,NA,NA,kpmf_mwnw_xwdb,NA
2446.504999883473,NA,html-button-response,3,43561,0.0-3.0-0.0,"<p>This is Dax the alien. He speaks an alien language.<br><br>He says, <i> ""Difu Dax midaku.""</i><br>That means ""Hello, my name is Dax.""</p><br><div style='width: 700px;'><div style='float: center;'><img src='img/alien1.png' width='250' height='300'></img></div></div><br>",0,setup,NA,NA,NA,NA,kpmf_mwnw_xwdb,NA
3118.4349998366088,NA,html-button-response,4,46681,0.0-3.0-1.0,"<p>Dax has a box. <br> He opens the box and looks inside. <br><br>Then, Dax says, <i>""Toma zem zorp bidaku midu osh gipu!""</i></p><div style='width: 700px;'><div style='float: center;'><img src='img/alien1.png' width='250' height='300'></img></div><div style='float: center;'><img src='img/grey_box.png'></img></div></div><br>",0,setup,NA,NA,NA,NA,kpmf_mwnw_xwdb,NA
4658.254999900237,NA,html-button-response,5,51341,0.0-3.0-2.0,"<p>Which box do you think Dax was looking in when he said<br><i>""Toma zem zorp bidaku midu osh gipu!""</i>?</p><div style='width: 700px;'></div>",1,test,num,complex,0,NA,kpmf_mwnw_xwdb,0
6777.405000058934,NA,survey-text,6,58121,0.0-4.0,NA,NA,comment,NA,NA,NA,cantain different things,kpmf_mwnw_xwdb,NA
1818.7550001312047,NA,html-button-response,7,59941,0.0-5.0,<p>This is the end of the study. Thank you for participating!</p>,0,NA,NA,NA,NA,NA,kpmf_mwnw_xwdb,NA
19574.619999853894,recaptcha.html,external-html,0,19598,0.0-0.0,NA,NA,NA,NA,NA,NA,NA,kpng_dagv_cozl,NA
10455.120000056922,consent/consent.html,external-html,1,30489,0.0-1.0,NA,NA,NA,NA,NA,NA,NA,kpng_dagv_cozl,NA
1854.1049999184906,NA,html-button-response,2,32346,0.0-2.0,"<p>In this experiment, you will see some aliens talk and make judgments about what they are talking about.",0,setup,NA,NA,NA,NA,kpng_dagv_cozl,NA
6932.614999823272,NA,html-button-response,3,41294,0.0-3.0-0.0,"<p>This is Dax the alien. He speaks an alien language.<br><br>He says, <i> ""Difu Dax midaku.""</i><br>That means ""Hello, my name is Dax.""</p><br><div style='width: 700px;'><div style='float: center;'><img src='img/alien1.png' width='250' height='300'></img></div></div><br>",0,setup,NA,NA,NA,NA,kpng_dagv_cozl,NA
9277.075000107288,NA,html-button-response,4,50576,0.0-3.0-1.0,"<p>Dax has a box. <br> He opens the box and looks inside. <br><br>Then, Dax says, <i>""Toma!""</i></p><div style='width: 700px;'><div style='float: center;'><img src='img/alien1.png' width='250' height='300'></img></div><div style='float: center;'><img src='img/grey_box.png'></img></div></div><br>",0,setup,NA,NA,NA,NA,kpng_dagv_cozl,NA
10527.059999993071,NA,html-button-response,5,61105,0.0-3.0-2.0,"<p>Which box do you think Dax was looking in when he said<br><i>""Toma!""</i>?</p><div style='width: 700px;'></div>",0,test,type,simple,1,NA,kpng_dagv_cozl,0
29896.750000072643,NA,survey-text,6,91005,0.0-4.0,NA,NA,comment,NA,NA,NA,CONTAIN DIFFERENT ELEMENT,kpng_dagv_cozl,NA
5957.2699998971075,NA,html-button-response,7,96963,0.0-5.0,<p>This is the end of the study. Thank you for participating!</p>,0,NA,NA,NA,NA,NA,kpng_dagv_cozl,NA
21620.74000001303,recaptcha.html,external-html,0,21734,0.0-0.0,NA,NA,NA,NA,NA,NA,NA,ksjk_avpf_dqfl,NA
39543.0800000031,consent/consent.html,external-html,1,61341,0.0-1.0,NA,NA,NA,NA,NA,NA,NA,ksjk_avpf_dqfl,NA
56141.694999998435,NA,html-button-response,2,117492,0.0-2.0,"<p>In this experiment, you will see some aliens talk and make judgments about what they are talking about.",0,setup,NA,NA,NA,NA,ksjk_avpf_dqfl,NA
11061.444999999367,NA,html-button-response,3,130560,0.0-3.0-0.0,"<p>This is Dax the alien. He speaks an alien language.<br><br>He says, <i> ""Difu Dax midaku.""</i><br>That means ""Hello, my name is Dax.""</p><br><div style='width: 700px;'><div style='float: center;'><img src='img/alien1.png' width='250' height='300'></img></div></div><br>",0,setup,NA,NA,NA,NA,ksjk_avpf_dqfl,NA
208616.7949999799,NA,html-button-response,4,339189,0.0-3.0-1.0,"<p>Dax has a box. <br> He opens the box and looks inside. <br><br>Then, Dax says, <i>""Toma zem zorp bidaku midu osh gipu!""</i></p><div style='width: 700px;'><div style='float: center;'><img src='img/alien1.png' width='250' height='300'></img></div><div style='float: center;'><img src='img/grey_box.png'></img></div></div><br>",0,setup,NA,NA,NA,NA,ksjk_avpf_dqfl,NA
10006.065000023227,NA,html-button-response,5,349203,0.0-3.0-2.0,"<p>Which box do you think Dax was looking in when he said<br><i>""Toma zem zorp bidaku midu osh gipu!""</i>?</p><div style='width: 700px;'></div>",1,test,type,complex,1,NA,ksjk_avpf_dqfl,1
27142.654999974184,NA,survey-text,6,376355,0.0-4.0,NA,NA,comment,NA,NA,NA,"It looked more interesting than the other box, and he seemed excited.",ksjk_avpf_dqfl,NA
2059.6800000057556,NA,html-button-response,7,378418,0.0-5.0,<p>This is the end of the study. Thank you for participating!</p>,0,NA,NA,NA,NA,NA,ksjk_avpf_dqfl,NA
13704.149999888614,recaptcha.html,external-html,0,13877,0.0-0.0,NA,NA,NA,NA,NA,NA,NA,kwvm_zwlx_nxbs,NA
6013.180000009015,consent/consent.html,external-html,1,20394,0.0-1.0,NA,NA,NA,NA,NA,NA,NA,kwvm_zwlx_nxbs,NA
1422.0300000160933,NA,html-button-response,2,21819,0.0-2.0,"<p>In this experiment, you will see some aliens talk and make judgments about what they are talking about.",0,setup,NA,NA,NA,NA,kwvm_zwlx_nxbs,NA
2189.344999846071,NA,html-button-response,3,26010,0.0-3.0-0.0,"<p>This is Dax the alien. He speaks an alien language.<br><br>He says, <i> ""Difu Dax midaku.""</i><br>That means ""Hello, my name is Dax.""</p><br><div style='width: 700px;'><div style='float: center;'><img src='img/alien1.png' width='250' height='300'></img></div></div><br>",0,setup,NA,NA,NA,NA,kwvm_zwlx_nxbs,NA
35229.97500002384,NA,html-button-response,4,61244,0.0-3.0-1.0,"<p>Dax has a box. <br> He opens the box and looks inside. <br><br>Then, Dax says, <i>""Toma zem zorp bidaku midu osh gipu!""</i></p><div style='width: 700px;'><div style='float: center;'><img src='img/alien1.png' width='250' height='300'></img></div><div style='float: center;'><img src='img/grey_box.png'></img></div></div><br>",0,setup,NA,NA,NA,NA,kwvm_zwlx_nxbs,NA
6244.8450000956655,NA,html-button-response,5,67491,0.0-3.0-2.0,"<p>Which box do you think Dax was looking in when he said<br><i>""Toma zem zorp bidaku midu osh gipu!""</i>?</p><div style='width: 700px;'></div>",1,test,type,complex,1,NA,kwvm_zwlx_nxbs,1
15893.775000004098,NA,survey-text,6,83388,0.0-4.0,NA,NA,comment,NA,NA,NA,BECAUSE IT HAS DIFFERENT SHAPE THINGS,kwvm_zwlx_nxbs,NA
1062.7749999985099,NA,html-button-response,7,84452,0.0-5.0,<p>This is the end of the study. Thank you for participating!</p>,0,NA,NA,NA,NA,NA,kwvm_zwlx_nxbs,NA
4420.949999999721,recaptcha.html,external-html,0,4491,0.0-0.0,NA,NA,NA,NA,NA,NA,NA,kxmd_stdh_wpua,NA
5732.70500000217,consent/consent.html,external-html,1,10233,0.0-1.0,NA,NA,NA,NA,NA,NA,NA,kxmd_stdh_wpua,NA
1229.155000008177,NA,html-button-response,2,11466,0.0-2.0,"<p>In this experiment, you will see some aliens talk and make judgments about what they are talking about.",0,setup,NA,NA,NA,NA,kxmd_stdh_wpua,NA
12118.909999990137,NA,html-button-response,3,25588,0.0-3.0-0.0,"<p>This is Dax the alien. He speaks an alien language.<br><br>He says, <i> ""Difu Dax midaku.""</i><br>That means ""Hello, my name is Dax.""</p><br><div style='width: 700px;'><div style='float: center;'><img src='img/alien1.png' width='250' height='300'></img></div></div><br>",0,setup,NA,NA,NA,NA,kxmd_stdh_wpua,NA
8766.720000014175,NA,html-button-response,4,34357,0.0-3.0-1.0,"<p>Dax has a box. <br> He opens the box and looks inside. <br><br>Then, Dax says, <i>""Toma zem zorp bidaku midu osh gipu!""</i></p><div style='width: 700px;'><div style='float: center;'><img src='img/alien1.png' width='250' height='300'></img></div><div style='float: center;'><img src='img/grey_box.png'></img></div></div><br>",0,setup,NA,NA,NA,NA,kxmd_stdh_wpua,NA
13869.280000013532,NA,html-button-response,5,48231,0.0-3.0-2.0,"<p>Which box do you think Dax was looking in when he said<br><i>""Toma zem zorp bidaku midu osh gipu!""</i>?</p><div style='width: 700px;'></div>",1,test,num,complex,0,NA,kxmd_stdh_wpua,0
10455.320000008214,NA,survey-text,6,58688,0.0-4.0,NA,NA,comment,NA,NA,NA,becuase the box is full,kxmd_stdh_wpua,NA
2208.8349999976344,NA,html-button-response,7,60898,0.0-5.0,<p>This is the end of the study. Thank you for participating!</p>,0,NA,NA,NA,NA,NA,kxmd_stdh_wpua,NA
12332.894999999553,recaptcha.html,external-html,0,12541,0.0-0.0,NA,NA,NA,NA,NA,NA,NA,ldtm_ptii_dzzy,NA
13121.69499999436,consent/consent.html,external-html,1,25793,0.0-1.0,NA,NA,NA,NA,NA,NA,NA,ldtm_ptii_dzzy,NA
1568.6050000076648,NA,html-button-response,2,27373,0.0-2.0,"<p>In this experiment, you will see some aliens talk and make judgments about what they are talking about.",0,setup,NA,NA,NA,NA,ldtm_ptii_dzzy,NA
18886.845000000903,NA,html-button-response,3,48273,0.0-3.0-0.0,"<p>This is Dax the alien. He speaks an alien language.<br><br>He says, <i> ""Difu Dax midaku.""</i><br>That means ""Hello, my name is Dax.""</p><br><div style='width: 700px;'><div style='float: center;'><img src='img/alien1.png' width='250' height='300'></img></div></div><br>",0,setup,NA,NA,NA,NA,ldtm_ptii_dzzy,NA
13985.339999999269,NA,html-button-response,4,62262,0.0-3.0-1.0,"<p>Dax has a box. <br> He opens the box and looks inside. <br><br>Then, Dax says, <i>""Toma!""</i></p><div style='width: 700px;'><div style='float: center;'><img src='img/alien1.png' width='250' height='300'></img></div><div style='float: center;'><img src='img/grey_box.png'></img></div></div><br>",0,setup,NA,NA,NA,NA,ldtm_ptii_dzzy,NA
36973.27499999665,NA,html-button-response,5,99238,0.0-3.0-2.0,"<p>Which box do you think Dax was looking in when he said<br><i>""Toma!""</i>?</p><div style='width: 700px;'></div>",1,test,type,simple,0,NA,ldtm_ptii_dzzy,0
22242.695000008098,NA,survey-text,6,121507,0.0-4.0,NA,NA,comment,NA,NA,NA,I think he might looking for this box,ldtm_ptii_dzzy,NA
1461.1100000038277,NA,html-button-response,7,122972,0.0-5.0,<p>This is the end of the study. Thank you for participating!</p>,0,NA,NA,NA,NA,NA,ldtm_ptii_dzzy,NA
17647.820000000138,recaptcha.html,external-html,0,17902,0.0-0.0,NA,NA,NA,NA,NA,NA,NA,lgpk_mglt_qfws,NA
26111.509999999726,consent/consent.html,external-html,1,44813,0.0-1.0,NA,NA,NA,NA,NA,NA,NA,lgpk_mglt_qfws,NA
1717.529999999897,NA,html-button-response,2,46534,0.0-2.0,"<p>In this experiment, you will see some aliens talk and make judgments about what they are talking about.",0,setup,NA,NA,NA,NA,lgpk_mglt_qfws,NA
4754.249999999956,NA,html-button-response,3,53294,0.0-3.0-0.0,"<p>This is Dax the alien. He speaks an alien language.<br><br>He says, <i> ""Difu Dax midaku.""</i><br>That means ""Hello, my name is Dax.""</p><br><div style='width: 700px;'><div style='float: center;'><img src='img/alien1.png' width='250' height='300'></img></div></div><br>",0,setup,NA,NA,NA,NA,lgpk_mglt_qfws,NA
2856.7149999998946,NA,html-button-response,4,56154,0.0-3.0-1.0,"<p>Dax has a box. <br> He opens the box and looks inside. <br><br>Then, Dax says, <i>""Toma zem zorp bidaku midu osh gipu!""</i></p><div style='width: 700px;'><div style='float: center;'><img src='img/alien1.png' width='250' height='300'></img></div><div style='float: center;'><img src='img/grey_box.png'></img></div></div><br>",0,setup,NA,NA,NA,NA,lgpk_mglt_qfws,NA
2276.915000000372,NA,html-button-response,5,58433,0.0-3.0-2.0,"<p>Which box do you think Dax was looking in when he said<br><i>""Toma zem zorp bidaku midu osh gipu!""</i>?</p><div style='width: 700px;'></div>",0,test,entropy,complex,0,NA,lgpk_mglt_qfws,1
7743.575000000426,NA,survey-text,6,66184,0.0-4.0,NA,NA,comment,NA,NA,NA,well,lgpk_mglt_qfws,NA
2285.960000000152,NA,html-button-response,7,68472,0.0-5.0,<p>This is the end of the study. Thank you for participating!</p>,0,NA,NA,NA,NA,NA,lgpk_mglt_qfws,NA
49937.65999999596,recaptcha.html,external-html,0,49979,0.0-0.0,NA,NA,NA,NA,NA,NA,NA,lmrt_klbm_qsdl,NA
22694.0450000111,consent/consent.html,external-html,1,72724,0.0-1.0,NA,NA,NA,NA,NA,NA,NA,lmrt_klbm_qsdl,NA
3659.69000000041,NA,html-button-response,2,76393,0.0-2.0,"<p>In this experiment, you will see some aliens talk and make judgments about what they are talking about.",0,setup,NA,NA,NA,NA,lmrt_klbm_qsdl,NA
3967.8050000220537,NA,html-button-response,3,82363,0.0-3.0-0.0,"<p>This is Dax the alien. He speaks an alien language.<br><br>He says, <i> ""Difu Dax midaku.""</i><br>That means ""Hello, my name is Dax.""</p><br><div style='width: 700px;'><div style='float: center;'><img src='img/alien1.png' width='250' height='300'></img></div></div><br>",0,setup,NA,NA,NA,NA,lmrt_klbm_qsdl,NA
7796.834999986459,NA,html-button-response,4,90163,0.0-3.0-1.0,"<p>Dax has a box. <br> He opens the box and looks inside. <br><br>Then, Dax says, <i>""Toma!""</i></p><div style='width: 700px;'><div style='float: center;'><img src='img/alien1.png' width='250' height='300'></img></div><div style='float: center;'><img src='img/grey_box.png'></img></div></div><br>",0,setup,NA,NA,NA,NA,lmrt_klbm_qsdl,NA
4947.775000007823,NA,html-button-response,5,95114,0.0-3.0-2.0,"<p>Which box do you think Dax was looking in when he said<br><i>""Toma!""</i>?</p><div style='width: 700px;'></div>",1,test,num,simple,1,NA,lmrt_klbm_qsdl,1
9328.235000022687,NA,survey-text,6,104448,0.0-4.0,NA,NA,comment,NA,NA,NA,small,lmrt_klbm_qsdl,NA
1943.0199999478646,NA,html-button-response,7,106393,0.0-5.0,<p>This is the end of the study. Thank you for participating!</p>,0,NA,NA,NA,NA,NA,lmrt_klbm_qsdl,NA
8216.279999993276,recaptcha.html,external-html,0,8273,0.0-0.0,NA,NA,NA,NA,NA,NA,NA,lofk_bjql_qavi,NA
9251.779999991413,consent/consent.html,external-html,1,17633,0.0-1.0,NA,NA,NA,NA,NA,NA,NA,lofk_bjql_qavi,NA
2724.449999979697,NA,html-button-response,2,20361,0.0-2.0,"<p>In this experiment, you will see some aliens talk and make judgments about what they are talking about.",0,setup,NA,NA,NA,NA,lofk_bjql_qavi,NA
6140.654999995604,NA,html-button-response,3,28510,0.0-3.0-0.0,"<p>This is Dax the alien. He speaks an alien language.<br><br>He says, <i> ""Difu Dax midaku.""</i><br>That means ""Hello, my name is Dax.""</p><br><div style='width: 700px;'><div style='float: center;'><img src='img/alien1.png' width='250' height='300'></img></div></div><br>",0,setup,NA,NA,NA,NA,lofk_bjql_qavi,NA
8109.324999968521,NA,html-button-response,4,36623,0.0-3.0-1.0,"<p>Dax has a box. <br> He opens the box and looks inside. <br><br>Then, Dax says, <i>""Toma!""</i></p><div style='width: 700px;'><div style='float: center;'><img src='img/alien1.png' width='250' height='300'></img></div><div style='float: center;'><img src='img/grey_box.png'></img></div></div><br>",0,setup,NA,NA,NA,NA,lofk_bjql_qavi,NA
7193.215000035707,NA,html-button-response,5,43819,0.0-3.0-2.0,"<p>Which box do you think Dax was looking in when he said<br><i>""Toma!""</i>?</p><div style='width: 700px;'></div>",1,test,type,simple,0,NA,lofk_bjql_qavi,0
13031.404999957886,NA,survey-text,6,56864,0.0-4.0,NA,NA,comment,NA,NA,NA,The second box seemed more exciting and so did his response.,lofk_bjql_qavi,NA
1346.7599999858066,NA,html-button-response,7,58213,0.0-5.0,<p>This is the end of the study. Thank you for participating!</p>,0,NA,NA,NA,NA,NA,lofk_bjql_qavi,NA
20629.704999970272,recaptcha.html,external-html,0,20744,0.0-0.0,NA,NA,NA,NA,NA,NA,NA,lomq_pvcv_tnbe,NA
41810.47000014223,consent/consent.html,external-html,1,62864,0.0-1.0,NA,NA,NA,NA,NA,NA,NA,lomq_pvcv_tnbe,NA
7925.025000004098,NA,html-button-response,2,70798,0.0-2.0,"<p>In this experiment, you will see some aliens talk and make judgments about what they are talking about.",0,setup,NA,NA,NA,NA,lomq_pvcv_tnbe,NA
20032.81500004232,NA,html-button-response,3,92836,0.0-3.0-0.0,"<p>This is Dax the alien. He speaks an alien language.<br><br>He says, <i> ""Difu Dax midaku.""</i><br>That means ""Hello, my name is Dax.""</p><br><div style='width: 700px;'><div style='float: center;'><img src='img/alien1.png' width='250' height='300'></img></div></div><br>",0,setup,NA,NA,NA,NA,lomq_pvcv_tnbe,NA
27186.770000029355,NA,html-button-response,4,120032,0.0-3.0-1.0,"<p>Dax has a box. <br> He opens the box and looks inside. <br><br>Then, Dax says, <i>""Toma zem zorp bidaku midu osh gipu!""</i></p><div style='width: 700px;'><div style='float: center;'><img src='img/alien1.png' width='250' height='300'></img></div><div style='float: center;'><img src='img/grey_box.png'></img></div></div><br>",0,setup,NA,NA,NA,NA,lomq_pvcv_tnbe,NA
12543.915000045672,NA,html-button-response,5,132582,0.0-3.0-2.0,"<p>Which box do you think Dax was looking in when he said<br><i>""Toma zem zorp bidaku midu osh gipu!""</i>?</p><div style='width: 700px;'></div>",1,test,num,complex,0,NA,lomq_pvcv_tnbe,0
102560.1800000295,NA,survey-text,6,235148,0.0-4.0,NA,NA,comment,NA,NA,NA,Because I think he was surprised why there is only two balls in the box. ,lomq_pvcv_tnbe,NA
2466.56999993138,NA,html-button-response,7,237620,0.0-5.0,<p>This is the end of the study. Thank you for participating!</p>,0,NA,NA,NA,NA,NA,lomq_pvcv_tnbe,NA
6390.875000040978,recaptcha.html,external-html,0,6729,0.0-0.0,NA,NA,NA,NA,NA,NA,NA,lwtf_aqon_bdui,NA
8424.569999915548,consent/consent.html,external-html,1,15164,0.0-1.0,NA,NA,NA,NA,NA,NA,NA,lwtf_aqon_bdui,NA
4858.134999987669,NA,html-button-response,2,20025,0.0-2.0,"<p>In this experiment, you will see some aliens talk and make judgments about what they are talking about.",0,setup,NA,NA,NA,NA,lwtf_aqon_bdui,NA
4350.085000041872,NA,html-button-response,3,26385,0.0-3.0-0.0,"<p>This is Dax the alien. He speaks an alien language.<br><br>He says, <i> ""Difu Dax midaku.""</i><br>That means ""Hello, my name is Dax.""</p><br><div style='width: 700px;'><div style='float: center;'><img src='img/alien1.png' width='250' height='300'></img></div></div><br>",0,setup,NA,NA,NA,NA,lwtf_aqon_bdui,NA
8416.869999957271,NA,html-button-response,4,34804,0.0-3.0-1.0,"<p>Dax has a box. <br> He opens the box and looks inside. <br><br>Then, Dax says, <i>""Toma zem zorp bidaku midu osh gipu!""</i></p><div style='width: 700px;'><div style='float: center;'><img src='img/alien1.png' width='250' height='300'></img></div><div style='float: center;'><img src='img/grey_box.png'></img></div></div><br>",0,setup,NA,NA,NA,NA,lwtf_aqon_bdui,NA
6357.930000056513,NA,html-button-response,5,41165,0.0-3.0-2.0,"<p>Which box do you think Dax was looking in when he said<br><i>""Toma zem zorp bidaku midu osh gipu!""</i>?</p><div style='width: 700px;'></div>",1,test,type,complex,0,NA,lwtf_aqon_bdui,0
19555.67999999039,NA,survey-text,6,60725,0.0-4.0,NA,NA,comment,NA,NA,NA,THE COLOURED CRYSTALS,lwtf_aqon_bdui,NA
1977.904999977909,NA,html-button-response,7,62706,0.0-5.0,<p>This is the end of the study. Thank you for participating!</p>,0,NA,NA,NA,NA,NA,lwtf_aqon_bdui,NA
23449.980000033975,recaptcha.html,external-html,0,23467,0.0-0.0,NA,NA,NA,NA,NA,NA,NA,mdso_jxxh_pyxy,NA
7849.154999945313,consent/consent.html,external-html,1,31324,0.0-1.0,NA,NA,NA,NA,NA,NA,NA,mdso_jxxh_pyxy,NA
2107.899999944493,NA,html-button-response,2,33434,0.0-2.0,"<p>In this experiment, you will see some aliens talk and make judgments about what they are talking about.",0,setup,NA,NA,NA,NA,mdso_jxxh_pyxy,NA
2207.2999998927116,NA,html-button-response,3,37644,0.0-3.0-0.0,"<p>This is Dax the alien. He speaks an alien language.<br><br>He says, <i> ""Difu Dax midaku.""</i><br>That means ""Hello, my name is Dax.""</p><br><div style='width: 700px;'><div style='float: center;'><img src='img/alien1.png' width='250' height='300'></img></div></div><br>",0,setup,NA,NA,NA,NA,mdso_jxxh_pyxy,NA
3208.589999936521,NA,html-button-response,4,40854,0.0-3.0-1.0,"<p>Dax has a box. <br> He opens the box and looks inside. <br><br>Then, Dax says, <i>""Toma!""</i></p><div style='width: 700px;'><div style='float: center;'><img src='img/alien1.png' width='250' height='300'></img></div><div style='float: center;'><img src='img/grey_box.png'></img></div></div><br>",0,setup,NA,NA,NA,NA,mdso_jxxh_pyxy,NA
4188.480000011623,NA,html-button-response,5,45044,0.0-3.0-2.0,"<p>Which box do you think Dax was looking in when he said<br><i>""Toma!""</i>?</p><div style='width: 700px;'></div>",1,test,num,simple,0,NA,mdso_jxxh_pyxy,0
53142.370000015944,NA,survey-text,6,98194,0.0-4.0,NA,NA,comment,NA,NA,NA,contain many balls,mdso_jxxh_pyxy,NA
1337.3100000899285,NA,html-button-response,7,99533,0.0-5.0,<p>This is the end of the study. Thank you for participating!</p>,0,NA,NA,NA,NA,NA,mdso_jxxh_pyxy,NA
29101.620000001276,recaptcha.html,external-html,0,29167,0.0-0.0,NA,NA,NA,NA,NA,NA,NA,mfro_srvs_anqo,NA
7673.7300000004325,consent/consent.html,external-html,1,36883,0.0-1.0,NA,NA,NA,NA,NA,NA,NA,mfro_srvs_anqo,NA
3059.914999999819,NA,html-button-response,2,39949,0.0-2.0,"<p>In this experiment, you will see some aliens talk and make judgments about what they are talking about.",0,setup,NA,NA,NA,NA,mfro_srvs_anqo,NA
2353.5499999998137,NA,html-button-response,3,44306,0.0-3.0-0.0,"<p>This is Dax the alien. He speaks an alien language.<br><br>He says, <i> ""Difu Dax midaku.""</i><br>That means ""Hello, my name is Dax.""</p><br><div style='width: 700px;'><div style='float: center;'><img src='img/alien1.png' width='250' height='300'></img></div></div><br>",0,setup,NA,NA,NA,NA,mfro_srvs_anqo,NA
2467.529999999897,NA,html-button-response,4,46779,0.0-3.0-1.0,"<p>Dax has a box. <br> He opens the box and looks inside. <br><br>Then, Dax says, <i>""Toma!""</i></p><div style='width: 700px;'><div style='float: center;'><img src='img/alien1.png' width='250' height='300'></img></div><div style='float: center;'><img src='img/grey_box.png'></img></div></div><br>",0,setup,NA,NA,NA,NA,mfro_srvs_anqo,NA
1860.5399999996735,NA,html-button-response,5,48644,0.0-3.0-2.0,"<p>Which box do you think Dax was looking in when he said<br><i>""Toma!""</i>?</p><div style='width: 700px;'></div>",0,test,type,simple,0,NA,mfro_srvs_anqo,1
23936.775000000125,NA,survey-text,6,72589,0.0-4.0,NA,NA,comment,NA,NA,NA,wounderful,mfro_srvs_anqo,NA
979.9999999995634,NA,html-button-response,7,73572,0.0-5.0,<p>This is the end of the study. Thank you for participating!</p>,0,NA,NA,NA,NA,NA,mfro_srvs_anqo,NA
13737.985000014305,recaptcha.html,external-html,0,13750,0.0-0.0,NA,NA,NA,NA,NA,NA,NA,mnlw_lplh_aohp,NA
12370.38500001654,consent/consent.html,external-html,1,26128,0.0-1.0,NA,NA,NA,NA,NA,NA,NA,mnlw_lplh_aohp,NA
2997.7299999445677,NA,html-button-response,2,29128,0.0-2.0,"<p>In this experiment, you will see some aliens talk and make judgments about what they are talking about.",0,setup,NA,NA,NA,NA,mnlw_lplh_aohp,NA
3000.895000062883,NA,html-button-response,3,34138,0.0-3.0-0.0,"<p>This is Dax the alien. He speaks an alien language.<br><br>He says, <i> ""Difu Dax midaku.""</i><br>That means ""Hello, my name is Dax.""</p><br><div style='width: 700px;'><div style='float: center;'><img src='img/alien1.png' width='250' height='300'></img></div></div><br>",0,setup,NA,NA,NA,NA,mnlw_lplh_aohp,NA
2917.5400000531226,NA,html-button-response,4,37058,0.0-3.0-1.0,"<p>Dax has a box. <br> He opens the box and looks inside. <br><br>Then, Dax says, <i>""Toma!""</i></p><div style='width: 700px;'><div style='float: center;'><img src='img/alien1.png' width='250' height='300'></img></div><div style='float: center;'><img src='img/grey_box.png'></img></div></div><br>",0,setup,NA,NA,NA,NA,mnlw_lplh_aohp,NA
3268.1750000920147,NA,html-button-response,5,40328,0.0-3.0-2.0,"<p>Which box do you think Dax was looking in when he said<br><i>""Toma!""</i>?</p><div style='width: 700px;'></div>",1,test,type,simple,0,NA,mnlw_lplh_aohp,0
10596.79999994114,NA,survey-text,6,50928,0.0-4.0,NA,NA,comment,NA,NA,NA,this is alien  language,mnlw_lplh_aohp,NA
1938.510000007227,NA,html-button-response,7,52867,0.0-5.0,<p>This is the end of the study. Thank you for participating!</p>,0,NA,NA,NA,NA,NA,mnlw_lplh_aohp,NA
10047.344999853522,recaptcha.html,external-html,0,10064,0.0-0.0,NA,NA,NA,NA,NA,NA,NA,mxix_lycg_rxki,NA
22409.57000013441,consent/consent.html,external-html,1,32583,0.0-1.0,NA,NA,NA,NA,NA,NA,NA,mxix_lycg_rxki,NA
6790.675000054762,NA,html-button-response,2,39377,0.0-2.0,"<p>In this experiment, you will see some aliens talk and make judgments about what they are talking about.",0,setup,NA,NA,NA,NA,mxix_lycg_rxki,NA
11589.72500008531,NA,html-button-response,3,52972,0.0-3.0-0.0,"<p>This is Dax the alien. He speaks an alien language.<br><br>He says, <i> ""Difu Dax midaku.""</i><br>That means ""Hello, my name is Dax.""</p><br><div style='width: 700px;'><div style='float: center;'><img src='img/alien1.png' width='250' height='300'></img></div></div><br>",0,setup,NA,NA,NA,NA,mxix_lycg_rxki,NA
10867.289999965578,NA,html-button-response,4,63842,0.0-3.0-1.0,"<p>Dax has a box. <br> He opens the box and looks inside. <br><br>Then, Dax says, <i>""Toma!""</i></p><div style='width: 700px;'><div style='float: center;'><img src='img/alien1.png' width='250' height='300'></img></div><div style='float: center;'><img src='img/grey_box.png'></img></div></div><br>",0,setup,NA,NA,NA,NA,mxix_lycg_rxki,NA
7753.814999945462,NA,html-button-response,5,71597,0.0-3.0-2.0,"<p>Which box do you think Dax was looking in when he said<br><i>""Toma!""</i>?</p><div style='width: 700px;'></div>",0,test,num,simple,1,NA,mxix_lycg_rxki,0
42297.61000000872,NA,survey-text,6,113899,0.0-4.0,NA,NA,comment,NA,NA,NA,The exclamation points seemed to imply something unexpected. I assumed a large number of dots would bring about this reaction.,mxix_lycg_rxki,NA
2608.809999888763,NA,html-button-response,7,116509,0.0-5.0,<p>This is the end of the study. Thank you for participating!</p>,0,NA,NA,NA,NA,NA,mxix_lycg_rxki,NA
14197.234999999637,recaptcha.html,external-html,0,14278,0.0-0.0,NA,NA,NA,NA,NA,NA,NA,mxub_zgvw_fgzx,NA
11802.279999988968,consent/consent.html,external-html,1,26099,0.0-1.0,NA,NA,NA,NA,NA,NA,NA,mxub_zgvw_fgzx,NA
1817.5950000004377,NA,html-button-response,2,27921,0.0-2.0,"<p>In this experiment, you will see some aliens talk and make judgments about what they are talking about.",0,setup,NA,NA,NA,NA,mxub_zgvw_fgzx,NA
3215.1600000070175,NA,html-button-response,3,33144,0.0-3.0-0.0,"<p>This is Dax the alien. He speaks an alien language.<br><br>He says, <i> ""Difu Dax midaku.""</i><br>That means ""Hello, my name is Dax.""</p><br><div style='width: 700px;'><div style='float: center;'><img src='img/alien1.png' width='250' height='300'></img></div></div><br>",0,setup,NA,NA,NA,NA,mxub_zgvw_fgzx,NA
4051.615000003949,NA,html-button-response,4,37200,0.0-3.0-1.0,"<p>Dax has a box. <br> He opens the box and looks inside. <br><br>Then, Dax says, <i>""Toma!""</i></p><div style='width: 700px;'><div style='float: center;'><img src='img/alien1.png' width='250' height='300'></img></div><div style='float: center;'><img src='img/grey_box.png'></img></div></div><br>",0,setup,NA,NA,NA,NA,mxub_zgvw_fgzx,NA
6501.994999998715,NA,html-button-response,5,43707,0.0-3.0-2.0,"<p>Which box do you think Dax was looking in when he said<br><i>""Toma!""</i>?</p><div style='width: 700px;'></div>",0,test,num,simple,1,NA,mxub_zgvw_fgzx,0
10512.960000007297,NA,survey-text,6,54247,0.0-4.0,NA,NA,comment,NA,NA,NA,Excellent,mxub_zgvw_fgzx,NA
4288.509999998496,NA,html-button-response,7,58539,0.0-5.0,<p>This is the end of the study. Thank you for participating!</p>,0,NA,NA,NA,NA,NA,mxub_zgvw_fgzx,NA
22667.70499999984,recaptcha.html,external-html,0,22706,0.0-0.0,NA,NA,NA,NA,NA,NA,NA,nilb_vcfl_bubp,NA
117914.38000000198,consent/consent.html,external-html,1,142038,0.0-1.0,NA,NA,NA,NA,NA,NA,NA,nilb_vcfl_bubp,NA
3501.125000002503,NA,html-button-response,2,145544,0.0-2.0,"<p>In this experiment, you will see some aliens talk and make judgments about what they are talking about.",0,setup,NA,NA,NA,NA,nilb_vcfl_bubp,NA
14157.6750000022,NA,html-button-response,3,161717,0.0-3.0-0.0,"<p>This is Dax the alien. He speaks an alien language.<br><br>He says, <i> ""Difu Dax midaku.""</i><br>That means ""Hello, my name is Dax.""</p><br><div style='width: 700px;'><div style='float: center;'><img src='img/alien1.png' width='250' height='300'></img></div></div><br>",0,setup,NA,NA,NA,NA,nilb_vcfl_bubp,NA
13073.985000002722,NA,html-button-response,4,174797,0.0-3.0-1.0,"<p>Dax has a box. <br> He opens the box and looks inside. <br><br>Then, Dax says, <i>""Toma!""</i></p><div style='width: 700px;'><div style='float: center;'><img src='img/alien1.png' width='250' height='300'></img></div><div style='float: center;'><img src='img/grey_box.png'></img></div></div><br>",0,setup,NA,NA,NA,NA,nilb_vcfl_bubp,NA
7209.9250000028405,NA,html-button-response,5,182013,0.0-3.0-2.0,"<p>Which box do you think Dax was looking in when he said<br><i>""Toma!""</i>?</p><div style='width: 700px;'></div>",0,test,num,simple,1,NA,nilb_vcfl_bubp,0
53048.02999999811,NA,survey-text,6,235083,0.0-4.0,NA,NA,comment,NA,NA,NA,It's the correct one,nilb_vcfl_bubp,NA
2483.889999995881,NA,html-button-response,7,237569,0.0-5.0,<p>This is the end of the study. Thank you for participating!</p>,0,NA,NA,NA,NA,NA,nilb_vcfl_bubp,NA
38724.91500061005,recaptcha.html,external-html,0,38835,0.0-0.0,NA,NA,NA,NA,NA,NA,NA,nmdk_mcdt_mtho,NA
53340.37999995053,consent/consent.html,external-html,1,92494,0.0-1.0,NA,NA,NA,NA,NA,NA,NA,nmdk_mcdt_mtho,NA
13371.904999949038,NA,html-button-response,2,105869,0.0-2.0,"<p>In this experiment, you will see some aliens talk and make judgments about what they are talking about.",0,setup,NA,NA,NA,NA,nmdk_mcdt_mtho,NA
36926.28499958664,NA,html-button-response,3,144799,0.0-3.0-0.0,"<p>This is Dax the alien. He speaks an alien language.<br><br>He says, <i> ""Difu Dax midaku.""</i><br>That means ""Hello, my name is Dax.""</p><br><div style='width: 700px;'><div style='float: center;'><img src='img/alien1.png' width='250' height='300'></img></div></div><br>",0,setup,NA,NA,NA,NA,nmdk_mcdt_mtho,NA
35170.12000083923,NA,html-button-response,4,179970,0.0-3.0-1.0,"<p>Dax has a box. <br> He opens the box and looks inside. <br><br>Then, Dax says, <i>""Toma!""</i></p><div style='width: 700px;'><div style='float: center;'><img src='img/alien1.png' width='250' height='300'></img></div><div style='float: center;'><img src='img/grey_box.png'></img></div></div><br>",0,setup,NA,NA,NA,NA,nmdk_mcdt_mtho,NA
15625.035000033677,NA,html-button-response,5,195599,0.0-3.0-2.0,"<p>Which box do you think Dax was looking in when he said<br><i>""Toma!""</i>?</p><div style='width: 700px;'></div>",1,test,entropy,simple,1,NA,nmdk_mcdt_mtho,1
89643.31500045955,NA,survey-text,6,285251,0.0-4.0,NA,NA,comment,NA,NA,NA,so colorfull shapes inside the box,nmdk_mcdt_mtho,NA
3243.5999996960163,NA,html-button-response,7,288497,0.0-5.0,<p>This is the end of the study. Thank you for participating!</p>,0,NA,NA,NA,NA,NA,nmdk_mcdt_mtho,NA
14660.999999847263,recaptcha.html,external-html,0,14738,0.0-0.0,NA,NA,NA,NA,NA,NA,NA,npki_yvis_ndyt,NA
6226.9999999552965,consent/consent.html,external-html,1,22111,0.0-1.0,NA,NA,NA,NA,NA,NA,NA,npki_yvis_ndyt,NA
1365.0000002235174,NA,html-button-response,2,23481,0.0-2.0,"<p>In this experiment, you will see some aliens talk and make judgments about what they are talking about.",0,setup,NA,NA,NA,NA,npki_yvis_ndyt,NA
2075.999999884516,NA,html-button-response,3,27562,0.0-3.0-0.0,"<p>This is Dax the alien. He speaks an alien language.<br><br>He says, <i> ""Difu Dax midaku.""</i><br>That means ""Hello, my name is Dax.""</p><br><div style='width: 700px;'><div style='float: center;'><img src='img/alien1.png' width='250' height='300'></img></div></div><br>",0,setup,NA,NA,NA,NA,npki_yvis_ndyt,NA
17200.999999884516,NA,html-button-response,4,44768,0.0-3.0-1.0,"<p>Dax has a box. <br> He opens the box and looks inside. <br><br>Then, Dax says, <i>""Toma zem zorp bidaku midu osh gipu!""</i></p><div style='width: 700px;'><div style='float: center;'><img src='img/alien1.png' width='250' height='300'></img></div><div style='float: center;'><img src='img/grey_box.png'></img></div></div><br>",0,setup,NA,NA,NA,NA,npki_yvis_ndyt,NA
5949.000000022352,NA,html-button-response,5,50722,0.0-3.0-2.0,"<p>Which box do you think Dax was looking in when he said<br><i>""Toma zem zorp bidaku midu osh gipu!""</i>?</p><div style='width: 700px;'></div>",1,test,type,complex,0,NA,npki_yvis_ndyt,0
23389.999999664724,NA,survey-text,6,74131,0.0-4.0,NA,NA,comment,NA,NA,NA,Its like more than different color combination box.,npki_yvis_ndyt,NA
1341.0000000149012,NA,html-button-response,7,75477,0.0-5.0,<p>This is the end of the study. Thank you for participating!</p>,0,NA,NA,NA,NA,NA,npki_yvis_ndyt,NA
4247.440000006463,recaptcha.html,external-html,0,4317,0.0-0.0,NA,NA,NA,NA,NA,NA,NA,nsva_noxd_zdsr,NA
22830.779999989318,consent/consent.html,external-html,1,27160,0.0-1.0,NA,NA,NA,NA,NA,NA,NA,nsva_noxd_zdsr,NA
1915.4899999848567,NA,html-button-response,2,29080,0.0-2.0,"<p>In this experiment, you will see some aliens talk and make judgments about what they are talking about.",0,setup,NA,NA,NA,NA,nsva_noxd_zdsr,NA
5373.190000012983,NA,html-button-response,3,36456,0.0-3.0-0.0,"<p>This is Dax the alien. He speaks an alien language.<br><br>He says, <i> ""Difu Dax midaku.""</i><br>That means ""Hello, my name is Dax.""</p><br><div style='width: 700px;'><div style='float: center;'><img src='img/alien1.png' width='250' height='300'></img></div></div><br>",0,setup,NA,NA,NA,NA,nsva_noxd_zdsr,NA
8279.234999994515,NA,html-button-response,4,44737,0.0-3.0-1.0,"<p>Dax has a box. <br> He opens the box and looks inside. <br><br>Then, Dax says, <i>""Toma!""</i></p><div style='width: 700px;'><div style='float: center;'><img src='img/alien1.png' width='250' height='300'></img></div><div style='float: center;'><img src='img/grey_box.png'></img></div></div><br>",0,setup,NA,NA,NA,NA,nsva_noxd_zdsr,NA
2481.9100000022445,NA,html-button-response,5,47223,0.0-3.0-2.0,"<p>Which box do you think Dax was looking in when he said<br><i>""Toma!""</i>?</p><div style='width: 700px;'></div>",1,test,num,simple,0,NA,nsva_noxd_zdsr,0
5770.870000007562,NA,survey-text,6,53001,0.0-4.0,NA,NA,comment,NA,NA,NA,more product ,nsva_noxd_zdsr,NA
1151.0699999926146,NA,html-button-response,7,54153,0.0-5.0,<p>This is the end of the study. Thank you for participating!</p>,0,NA,NA,NA,NA,NA,nsva_noxd_zdsr,NA
2955.434999999852,recaptcha.html,external-html,0,3062,0.0-0.0,NA,NA,NA,NA,NA,NA,NA,nzpz_ghuk_ojje,NA
17999.269999999797,consent/consent.html,external-html,1,21083,0.0-1.0,NA,NA,NA,NA,NA,NA,NA,nzpz_ghuk_ojje,NA
1173.2999999999265,NA,html-button-response,2,22258,0.0-2.0,"<p>In this experiment, you will see some aliens talk and make judgments about what they are talking about.",0,setup,NA,NA,NA,NA,nzpz_ghuk_ojje,NA
