rt,url,trial_type,trial_index,time_elapsed,internal_node_id,stimulus,button_pressed,test_part,utt,boxes_type,left_box,right_box,responses,subid,selected_box,accuracy
22685.00000005588,recaptcha.html,external-html,0,22879,0.0-0.0,NA,NA,NA,NA,NA,NA,NA,NA,abhc_isvr_hinp,NA,NA
13689.000000013039,consent/consent.html,external-html,1,37208,0.0-1.0,NA,NA,NA,NA,NA,NA,NA,NA,abhc_isvr_hinp,NA,NA
2827.999999979511,NA,html-button-response,2,40043,0.0-2.0,"<p>In this experiment, you will see some aliens talk and make judgments about what they are talking about.",0,setup,NA,NA,NA,NA,NA,abhc_isvr_hinp,,0
24358.00000000745,NA,html-button-response,3,66409,0.0-3.0-0.0,"<p>This is Dax the alien. He speaks an alien language.<br><br>He says, <i> ""Difu Dax midaku.""</i><br>That means ""Hello, my name is Dax.""</p><br><div style='width: 700px;'><div style='float: center;'><img src='img/alien1.png' width='250' height='300'></img></div></div><br>",0,setup,NA,NA,NA,NA,NA,abhc_isvr_hinp,,0
10770.999999949709,NA,html-button-response,4,77688,0.0-3.0-1.0,"<p>Dax has two boxes. <br> He opens one box and looks inside. <br><br>Then, Dax says, <i>""Bado mep.""</i></p><div style='width: 700px;'><div style='float: center;'><img src='img/alien1.png' width='250' height='300'></img></div><div style='float: center;'><img src='img/grey_box.png'></img><img src='img/grey_box.png'></img></div></div><br>",0,setup,simple_utt,NA,NA,NA,NA,abhc_isvr_hinp,,0
11876.99999997858,NA,html-button-response,5,90073,0.0-3.0-2.0,"<p>Then, Dax opens the other box and looks inside. <br><br>He says, <i>""Toba zem zorp bidaku midu osh gipu.""</i></p><div style='width: 700px;'><div style='float: center;'><img src='img/alien1.png' width='250' height='300'></img></div><div style='float: center;'><img src='img/grey_box.png'></img><img src='img/grey_box.png'></img></div></div><br>",0,setup,complex_utt,NA,NA,NA,NA,abhc_isvr_hinp,,0
13619.000000064261,NA,html-button-response,6,104209,0.0-3.0-3.0,<p>Here are Dax's boxes.<br></p><div style='width: 700px;'><div style='float: center;'><img width = '250px' src='img/num_objects/box_2.png'></img><img width = '250px' src='img/num_objects/box_1.png'></img></div></div>,0,NA,NA,NA,NA,NA,NA,abhc_isvr_hinp,NA,NA
27672.00000002049,NA,html-button-response,7,132388,0.0-3.0-4.0,"<p>Remember, Dax looked in one box and said <i>""Bado mep.""</i></p><p>Then Dax looked in the other box and said <i>""Toba zem zorp bidaku midu osh gipu.""</i></p><p>Which box do you think Dax was looking in when he said<br><i>""Bado mep.""</i>?</p><div style='width: 700px;'></div>",0,box_selection,simple_utt,num_objects,box_2,box_1,NA,abhc_isvr_hinp,box_2,0
6593.999999924563,NA,html-button-response,8,139489,0.0-3.0-5.0,"<p>Remember, Dax looked in one box and said <i>""Bado mep.""</i></p><p>Then Dax looked in the other box and said <i>""Toba zem zorp bidaku midu osh gipu.""</i></p><p>Which box do you think Dax was looking in when he said<br><i>""Toba zem zorp bidaku midu osh gipu.""</i>?</p><div style='width: 700px;'></div>",1,box_selection,complex_utt,num_objects,box_2,box_1,NA,abhc_isvr_hinp,box_1,0
22898.999999975786,NA,survey-text,9,162902,0.0-4.0,NA,NA,comment,NA,NA,NA,NA,bado map was higher,abhc_isvr_hinp,,0
3463.9999999199063,NA,html-button-response,10,166376,0.0-5.0,<p>This is the end of the study. Thank you for participating!</p>,0,NA,NA,NA,NA,NA,NA,abhc_isvr_hinp,NA,NA
12326.700000005076,recaptcha.html,external-html,0,12352,0.0-0.0,NA,NA,NA,NA,NA,NA,NA,NA,aeae_ygjx_ljzz,NA,NA
16258.699999991222,consent/consent.html,external-html,1,29016,0.0-1.0,NA,NA,NA,NA,NA,NA,NA,NA,aeae_ygjx_ljzz,NA,NA
3313.9000000082888,NA,html-button-response,2,32336,0.0-2.0,"<p>In this experiment, you will see some aliens talk and make judgments about what they are talking about.",0,setup,NA,NA,NA,NA,NA,aeae_ygjx_ljzz,,0
10025.599999993574,NA,html-button-response,3,44367,0.0-3.0-0.0,"<p>This is Dax the alien. He speaks an alien language.<br><br>He says, <i> ""Difu Dax midaku.""</i><br>That means ""Hello, my name is Dax.""</p><br><div style='width: 700px;'><div style='float: center;'><img src='img/alien1.png' width='250' height='300'></img></div></div><br>",0,setup,NA,NA,NA,NA,NA,aeae_ygjx_ljzz,,0
14274.699999994482,NA,html-button-response,4,59149,0.0-3.0-1.0,"<p>Dax has two boxes. <br> He opens one box and looks inside. <br><br>Then, Dax says, <i>""Toba zem zorp bidaku midu osh gipu.""</i></p><div style='width: 700px;'><div style='float: center;'><img src='img/alien1.png' width='250' height='300'></img></div><div style='float: center;'><img src='img/grey_box.png'></img><img src='img/grey_box.png'></img></div></div><br>",0,setup,complex_utt,NA,NA,NA,NA,aeae_ygjx_ljzz,,0
9698.499999998603,NA,html-button-response,5,69356,0.0-3.0-2.0,"<p>Then, Dax opens the other box and looks inside. <br><br>He says, <i>""Bado mep.""</i></p><div style='width: 700px;'><div style='float: center;'><img src='img/alien1.png' width='250' height='300'></img></div><div style='float: center;'><img src='img/grey_box.png'></img><img src='img/grey_box.png'></img></div></div><br>",0,setup,simple_utt,NA,NA,NA,NA,aeae_ygjx_ljzz,,0
7203.50000000326,NA,html-button-response,6,77065,0.0-3.0-3.0,<p>Here are Dax's boxes.<br></p><div style='width: 700px;'><div style='float: center;'><img width = '250px' src='img/num_types/box_1.png'></img><img width = '250px' src='img/num_types/box_2.png'></img></div></div>,0,NA,NA,NA,NA,NA,NA,aeae_ygjx_ljzz,NA,NA
9016.499999997905,NA,html-button-response,7,86589,0.0-3.0-4.0,"<p>Remember, Dax looked in one box and said <i>""Toba zem zorp bidaku midu osh gipu.""</i></p><p>Then Dax looked in the other box and said <i>""Bado mep.""</i></p><p>Which box do you think Dax was looking in when he said<br><i>""Toba zem zorp bidaku midu osh gipu.""</i>?</p><div style='width: 700px;'></div>",1,box_selection,complex_utt,num_types,box_1,box_2,NA,aeae_ygjx_ljzz,box_2,1
3123.9999999961583,NA,html-button-response,8,90220,0.0-3.0-5.0,"<p>Remember, Dax looked in one box and said <i>""Toba zem zorp bidaku midu osh gipu.""</i></p><p>Then Dax looked in the other box and said <i>""Bado mep.""</i></p><p>Which box do you think Dax was looking in when he said<br><i>""Bado mep.""</i>?</p><div style='width: 700px;'></div>",0,box_selection,simple_utt,num_types,box_1,box_2,NA,aeae_ygjx_ljzz,box_1,1
31846.29999999015,NA,survey-text,9,122594,0.0-4.0,NA,NA,comment,NA,NA,NA,NA,I chose the longer phrase for the box with diffefent types of items and the shorter phrase for the box with all the same kind because its quicker to say that ,aeae_ygjx_ljzz,,0
1926.3999999966472,NA,html-button-response,10,124524,0.0-5.0,<p>This is the end of the study. Thank you for participating!</p>,0,NA,NA,NA,NA,NA,NA,aeae_ygjx_ljzz,NA,NA
2754.740000003949,recaptcha.html,external-html,0,2761,0.0-0.0,NA,NA,NA,NA,NA,NA,NA,NA,akta_xdag_kyum,NA,NA
5603.464999992866,consent/consent.html,external-html,1,8465,0.0-1.0,NA,NA,NA,NA,NA,NA,NA,NA,akta_xdag_kyum,NA,NA
2222.825000004377,NA,html-button-response,2,10690,0.0-2.0,"<p>In this experiment, you will see some aliens talk and make judgments about what they are talking about.",0,setup,NA,NA,NA,NA,NA,akta_xdag_kyum,,0
13290.930000017397,NA,html-button-response,3,25982,0.0-3.0-0.0,"<p>This is Dax the alien. He speaks an alien language.<br><br>He says, <i> ""Difu Dax midaku.""</i><br>That means ""Hello, my name is Dax.""</p><br><div style='width: 700px;'><div style='float: center;'><img src='img/alien1.png' width='250' height='300'></img></div></div><br>",0,setup,NA,NA,NA,NA,NA,akta_xdag_kyum,,0
14862.444999977015,NA,html-button-response,4,41355,0.0-3.0-1.0,"<p>Dax has two boxes. <br> He opens one box and looks inside. <br><br>Then, Dax says, <i>""Toba zem zorp bidaku midu osh gipu.""</i></p><div style='width: 700px;'><div style='float: center;'><img src='img/alien1.png' width='250' height='300'></img></div><div style='float: center;'><img src='img/grey_box.png'></img><img src='img/grey_box.png'></img></div></div><br>",0,setup,complex_utt,NA,NA,NA,NA,akta_xdag_kyum,,0
5912.890000035986,NA,html-button-response,5,47770,0.0-3.0-2.0,"<p>Then, Dax opens the other box and looks inside. <br><br>He says, <i>""Bado mep.""</i></p><div style='width: 700px;'><div style='float: center;'><img src='img/alien1.png' width='250' height='300'></img></div><div style='float: center;'><img src='img/grey_box.png'></img><img src='img/grey_box.png'></img></div></div><br>",0,setup,simple_utt,NA,NA,NA,NA,akta_xdag_kyum,,0
13683.614999987185,NA,html-button-response,6,61960,0.0-3.0-3.0,<p>Here are Dax's boxes.<br></p><div style='width: 700px;'><div style='float: center;'><img width = '250px' src='img/num_types/box_2.png'></img><img width = '250px' src='img/num_types/box_1.png'></img></div></div>,0,NA,NA,NA,NA,NA,NA,akta_xdag_kyum,NA,NA
24059.979999961797,NA,html-button-response,7,86524,0.0-3.0-4.0,"<p>Remember, Dax looked in one box and said <i>""Toba zem zorp bidaku midu osh gipu.""</i></p><p>Then Dax looked in the other box and said <i>""Bado mep.""</i></p><p>Which box do you think Dax was looking in when he said<br><i>""Toba zem zorp bidaku midu osh gipu.""</i>?</p><div style='width: 700px;'></div>",1,box_selection,complex_utt,num_types,box_2,box_1,NA,akta_xdag_kyum,box_1,0
3817.009999998845,NA,html-button-response,8,90847,0.0-3.0-5.0,"<p>Remember, Dax looked in one box and said <i>""Toba zem zorp bidaku midu osh gipu.""</i></p><p>Then Dax looked in the other box and said <i>""Bado mep.""</i></p><p>Which box do you think Dax was looking in when he said<br><i>""Bado mep.""</i>?</p><div style='width: 700px;'></div>",1,box_selection,simple_utt,num_types,box_2,box_1,NA,akta_xdag_kyum,box_1,1
57794.779999996535,NA,survey-text,9,149145,0.0-4.0,NA,NA,comment,NA,NA,NA,NA,I chose the right box because it shows objects of the same shapes and color and I think that's easier for Dax to recognize and choose.,akta_xdag_kyum,,0
1088.5099999723025,NA,html-button-response,10,150235,0.0-5.0,<p>This is the end of the study. Thank you for participating!</p>,0,NA,NA,NA,NA,NA,NA,akta_xdag_kyum,NA,NA
2688.605000003008,recaptcha.html,external-html,0,2709,0.0-0.0,NA,NA,NA,NA,NA,NA,NA,NA,akvz_bfnr_byqs,NA,NA
19364.43000000145,consent/consent.html,external-html,1,22088,0.0-1.0,NA,NA,NA,NA,NA,NA,NA,NA,akvz_bfnr_byqs,NA,NA
1223.5449999861885,NA,html-button-response,2,23316,0.0-2.0,"<p>In this experiment, you will see some aliens talk and make judgments about what they are talking about.",0,setup,NA,NA,NA,NA,NA,akvz_bfnr_byqs,,0
15420.494999998482,NA,html-button-response,3,40742,0.0-3.0-0.0,"<p>This is Dax the alien. He speaks an alien language.<br><br>He says, <i> ""Difu Dax midaku.""</i><br>That means ""Hello, my name is Dax.""</p><br><div style='width: 700px;'><div style='float: center;'><img src='img/alien1.png' width='250' height='300'></img></div></div><br>",0,setup,NA,NA,NA,NA,NA,akvz_bfnr_byqs,,0
11757.079999995767,NA,html-button-response,4,53003,0.0-3.0-1.0,"<p>Dax has two boxes. <br> He opens one box and looks inside. <br><br>Then, Dax says, <i>""Toba zem zorp bidaku midu osh gipu.""</i></p><div style='width: 700px;'><div style='float: center;'><img src='img/alien1.png' width='250' height='300'></img></div><div style='float: center;'><img src='img/grey_box.png'></img><img src='img/grey_box.png'></img></div></div><br>",0,setup,complex_utt,NA,NA,NA,NA,akvz_bfnr_byqs,,0
9701.065000001108,NA,html-button-response,5,63209,0.0-3.0-2.0,"<p>Then, Dax opens the other box and looks inside. <br><br>He says, <i>""Bado mep.""</i></p><div style='width: 700px;'><div style='float: center;'><img src='img/alien1.png' width='250' height='300'></img></div><div style='float: center;'><img src='img/grey_box.png'></img><img src='img/grey_box.png'></img></div></div><br>",0,setup,simple_utt,NA,NA,NA,NA,akvz_bfnr_byqs,,0
6923.679999992601,NA,html-button-response,6,70637,0.0-3.0-3.0,<p>Here are Dax's boxes.<br></p><div style='width: 700px;'><div style='float: center;'><img width = '250px' src='img/num_objects/box_2.png'></img><img width = '250px' src='img/num_objects/box_1.png'></img></div></div>,0,NA,NA,NA,NA,NA,NA,akvz_bfnr_byqs,NA,NA
54493.37499999092,NA,html-button-response,7,125637,0.0-3.0-4.0,"<p>Remember, Dax looked in one box and said <i>""Toba zem zorp bidaku midu osh gipu.""</i></p><p>Then Dax looked in the other box and said <i>""Bado mep.""</i></p><p>Which box do you think Dax was looking in when he said<br><i>""Toba zem zorp bidaku midu osh gipu.""</i>?</p><div style='width: 700px;'></div>",0,box_selection,complex_utt,num_objects,box_2,box_1,NA,akvz_bfnr_byqs,box_2,1
7593.82499998901,NA,html-button-response,8,133736,0.0-3.0-5.0,"<p>Remember, Dax looked in one box and said <i>""Toba zem zorp bidaku midu osh gipu.""</i></p><p>Then Dax looked in the other box and said <i>""Bado mep.""</i></p><p>Which box do you think Dax was looking in when he said<br><i>""Bado mep.""</i>?</p><div style='width: 700px;'></div>",0,box_selection,simple_utt,num_objects,box_2,box_1,NA,akvz_bfnr_byqs,box_2,0
23053.039999998873,NA,survey-text,9,157297,0.0-4.0,NA,NA,comment,NA,NA,NA,NA,I guess the box that has the most blue balls.,akvz_bfnr_byqs,,0
992.0450000063283,NA,html-button-response,10,158290,0.0-5.0,<p>This is the end of the study. Thank you for participating!</p>,0,NA,NA,NA,NA,NA,NA,akvz_bfnr_byqs,NA,NA
10394.430000014836,recaptcha.html,external-html,0,10420,0.0-0.0,NA,NA,NA,NA,NA,NA,NA,NA,aojc_rgbo_orib,NA,NA
12931.66500001098,consent/consent.html,external-html,1,23745,0.0-1.0,NA,NA,NA,NA,NA,NA,NA,NA,aojc_rgbo_orib,NA,NA
4605.234999995446,NA,html-button-response,2,28353,0.0-2.0,"<p>In this experiment, you will see some aliens talk and make judgments about what they are talking about.",0,setup,NA,NA,NA,NA,NA,aojc_rgbo_orib,,0
13956.999999994878,NA,html-button-response,3,44324,0.0-3.0-0.0,"<p>This is Dax the alien. He speaks an alien language.<br><br>He says, <i> ""Difu Dax midaku.""</i><br>That means ""Hello, my name is Dax.""</p><br><div style='width: 700px;'><div style='float: center;'><img src='img/alien1.png' width='250' height='300'></img></div></div><br>",0,setup,NA,NA,NA,NA,NA,aojc_rgbo_orib,,0
7778.140000009444,NA,html-button-response,4,52620,0.0-3.0-1.0,"<p>Dax has two boxes. <br> He opens one box and looks inside. <br><br>Then, Dax says, <i>""Bado mep.""</i></p><div style='width: 700px;'><div style='float: center;'><img src='img/alien1.png' width='250' height='300'></img></div><div style='float: center;'><img src='img/grey_box.png'></img><img src='img/grey_box.png'></img></div></div><br>",0,setup,simple_utt,NA,NA,NA,NA,aojc_rgbo_orib,,0
6459.645000024466,NA,html-button-response,5,59597,0.0-3.0-2.0,"<p>Then, Dax opens the other box and looks inside. <br><br>He says, <i>""Toba zem zorp bidaku midu osh gipu.""</i></p><div style='width: 700px;'><div style='float: center;'><img src='img/alien1.png' width='250' height='300'></img></div><div style='float: center;'><img src='img/grey_box.png'></img><img src='img/grey_box.png'></img></div></div><br>",0,setup,complex_utt,NA,NA,NA,NA,aojc_rgbo_orib,,0
6804.369999998016,NA,html-button-response,6,66904,0.0-3.0-3.0,<p>Here are Dax's boxes.<br></p><div style='width: 700px;'><div style='float: center;'><img width = '250px' src='img/num_objects/box_2.png'></img><img width = '250px' src='img/num_objects/box_1.png'></img></div></div>,0,NA,NA,NA,NA,NA,NA,aojc_rgbo_orib,NA,NA
9788.335000019288,NA,html-button-response,7,77213,0.0-3.0-4.0,"<p>Remember, Dax looked in one box and said <i>""Bado mep.""</i></p><p>Then Dax looked in the other box and said <i>""Toba zem zorp bidaku midu osh gipu.""</i></p><p>Which box do you think Dax was looking in when he said<br><i>""Bado mep.""</i>?</p><div style='width: 700px;'></div>",1,box_selection,simple_utt,num_objects,box_2,box_1,NA,aojc_rgbo_orib,box_1,1
3028.8600000203587,NA,html-button-response,8,80760,0.0-3.0-5.0,"<p>Remember, Dax looked in one box and said <i>""Bado mep.""</i></p><p>Then Dax looked in the other box and said <i>""Toba zem zorp bidaku midu osh gipu.""</i></p><p>Which box do you think Dax was looking in when he said<br><i>""Toba zem zorp bidaku midu osh gipu.""</i>?</p><div style='width: 700px;'></div>",0,box_selection,complex_utt,num_objects,box_2,box_1,NA,aojc_rgbo_orib,box_2,1
20835.445000004256,NA,survey-text,9,102101,0.0-4.0,NA,NA,comment,NA,NA,NA,NA,Amount of words equals amount of items.,aojc_rgbo_orib,,0
1365.4199999873526,NA,html-button-response,10,103468,0.0-5.0,<p>This is the end of the study. Thank you for participating!</p>,0,NA,NA,NA,NA,NA,NA,aojc_rgbo_orib,NA,NA
21232.780000020284,recaptcha.html,external-html,0,21265,0.0-0.0,NA,NA,NA,NA,NA,NA,NA,NA,aqmj_tyux_wara,NA,NA
113605.79000000143,consent/consent.html,external-html,1,135838,0.0-1.0,NA,NA,NA,NA,NA,NA,NA,NA,aqmj_tyux_wara,NA,NA
7295.394999964628,NA,html-button-response,2,143136,0.0-2.0,"<p>In this experiment, you will see some aliens talk and make judgments about what they are talking about.",0,setup,NA,NA,NA,NA,NA,aqmj_tyux_wara,,0
131314.8650000221,NA,html-button-response,3,276468,0.0-3.0-0.0,"<p>This is Dax the alien. He speaks an alien language.<br><br>He says, <i> ""Difu Dax midaku.""</i><br>That means ""Hello, my name is Dax.""</p><br><div style='width: 700px;'><div style='float: center;'><img src='img/alien1.png' width='250' height='300'></img></div></div><br>",0,setup,NA,NA,NA,NA,NA,aqmj_tyux_wara,,0
32465.93499998562,NA,html-button-response,4,309437,0.0-3.0-1.0,"<p>Dax has two boxes. <br> He opens one box and looks inside. <br><br>Then, Dax says, <i>""Bado mep.""</i></p><div style='width: 700px;'><div style='float: center;'><img src='img/alien1.png' width='250' height='300'></img></div><div style='float: center;'><img src='img/grey_box.png'></img><img src='img/grey_box.png'></img></div></div><br>",0,setup,simple_utt,NA,NA,NA,NA,aqmj_tyux_wara,,0
35614.00500003947,NA,html-button-response,5,345556,0.0-3.0-2.0,"<p>Then, Dax opens the other box and looks inside. <br><br>He says, <i>""Toba zem zorp bidaku midu osh gipu.""</i></p><div style='width: 700px;'><div style='float: center;'><img src='img/alien1.png' width='250' height='300'></img></div><div style='float: center;'><img src='img/grey_box.png'></img><img src='img/grey_box.png'></img></div></div><br>",0,setup,complex_utt,NA,NA,NA,NA,aqmj_tyux_wara,,0
18838.4799999767,NA,html-button-response,6,364901,0.0-3.0-3.0,<p>Here are Dax's boxes.<br></p><div style='width: 700px;'><div style='float: center;'><img width = '250px' src='img/num_types/box_2.png'></img><img width = '250px' src='img/num_types/box_1.png'></img></div></div>,0,NA,NA,NA,NA,NA,NA,aqmj_tyux_wara,NA,NA
15155.80000000773,NA,html-button-response,7,380568,0.0-3.0-4.0,"<p>Remember, Dax looked in one box and said <i>""Bado mep.""</i></p><p>Then Dax looked in the other box and said <i>""Toba zem zorp bidaku midu osh gipu.""</i></p><p>Which box do you think Dax was looking in when he said<br><i>""Bado mep.""</i>?</p><div style='width: 700px;'></div>",0,box_selection,simple_utt,num_types,box_2,box_1,NA,aqmj_tyux_wara,box_2,0
3978.835000016261,NA,html-button-response,8,385106,0.0-3.0-5.0,"<p>Remember, Dax looked in one box and said <i>""Bado mep.""</i></p><p>Then Dax looked in the other box and said <i>""Toba zem zorp bidaku midu osh gipu.""</i></p><p>Which box do you think Dax was looking in when he said<br><i>""Toba zem zorp bidaku midu osh gipu.""</i>?</p><div style='width: 700px;'></div>",1,box_selection,complex_utt,num_types,box_2,box_1,NA,aqmj_tyux_wara,box_1,0
15336.364999995567,NA,survey-text,9,400952,0.0-4.0,NA,NA,comment,NA,NA,NA,NA,IT'S THE CORRECT BOX,aqmj_tyux_wara,,0
3073.1350000132807,NA,html-button-response,10,404027,0.0-5.0,<p>This is the end of the study. Thank you for participating!</p>,0,NA,NA,NA,NA,NA,NA,aqmj_tyux_wara,NA,NA
18790.000000037253,recaptcha.html,external-html,0,18875,0.0-0.0,NA,NA,NA,NA,NA,NA,NA,NA,awfn_pyeb_heax,NA,NA
44533.00000005402,consent/consent.html,external-html,1,63876,0.0-1.0,NA,NA,NA,NA,NA,NA,NA,NA,awfn_pyeb_heax,NA,NA
1471.9999998342246,NA,html-button-response,2,65355,0.0-2.0,"<p>In this experiment, you will see some aliens talk and make judgments about what they are talking about.",0,setup,NA,NA,NA,NA,NA,awfn_pyeb_heax,,0
4649.999999906868,NA,html-button-response,3,72010,0.0-3.0-0.0,"<p>This is Dax the alien. He speaks an alien language.<br><br>He says, <i> ""Difu Dax midaku.""</i><br>That means ""Hello, my name is Dax.""</p><br><div style='width: 700px;'><div style='float: center;'><img src='img/alien1.png' width='250' height='300'></img></div></div><br>",0,setup,NA,NA,NA,NA,NA,awfn_pyeb_heax,,0
6347.000000067055,NA,html-button-response,4,78864,0.0-3.0-1.0,"<p>Dax has two boxes. <br> He opens one box and looks inside. <br><br>Then, Dax says, <i>""Toba zem zorp bidaku midu osh gipu.""</i></p><div style='width: 700px;'><div style='float: center;'><img src='img/alien1.png' width='250' height='300'></img></div><div style='float: center;'><img src='img/grey_box.png'></img><img src='img/grey_box.png'></img></div></div><br>",0,setup,complex_utt,NA,NA,NA,NA,awfn_pyeb_heax,,0
3313.0000000819564,NA,html-button-response,5,82682,0.0-3.0-2.0,"<p>Then, Dax opens the other box and looks inside. <br><br>He says, <i>""Bado mep.""</i></p><div style='width: 700px;'><div style='float: center;'><img src='img/alien1.png' width='250' height='300'></img></div><div style='float: center;'><img src='img/grey_box.png'></img><img src='img/grey_box.png'></img></div></div><br>",0,setup,simple_utt,NA,NA,NA,NA,awfn_pyeb_heax,,0
8608.999999938533,NA,html-button-response,6,91795,0.0-3.0-3.0,<p>Here are Dax's boxes.<br></p><div style='width: 700px;'><div style='float: center;'><img width = '250px' src='img/num_objects/box_2.png'></img><img width = '250px' src='img/num_objects/box_1.png'></img></div></div>,0,NA,NA,NA,NA,NA,NA,awfn_pyeb_heax,NA,NA
7054.000000003725,NA,html-button-response,7,99355,0.0-3.0-4.0,"<p>Remember, Dax looked in one box and said <i>""Toba zem zorp bidaku midu osh gipu.""</i></p><p>Then Dax looked in the other box and said <i>""Bado mep.""</i></p><p>Which box do you think Dax was looking in when he said<br><i>""Toba zem zorp bidaku midu osh gipu.""</i>?</p><div style='width: 700px;'></div>",0,box_selection,complex_utt,num_objects,box_2,box_1,NA,awfn_pyeb_heax,box_2,1
2220.9999999031425,NA,html-button-response,8,102079,0.0-3.0-5.0,"<p>Remember, Dax looked in one box and said <i>""Toba zem zorp bidaku midu osh gipu.""</i></p><p>Then Dax looked in the other box and said <i>""Bado mep.""</i></p><p>Which box do you think Dax was looking in when he said<br><i>""Bado mep.""</i>?</p><div style='width: 700px;'></div>",1,box_selection,simple_utt,num_objects,box_2,box_1,NA,awfn_pyeb_heax,box_1,1
20203.999999910593,NA,survey-text,9,122791,0.0-4.0,NA,NA,comment,NA,NA,NA,NA,for my understanding,awfn_pyeb_heax,,0
1587.9999999888241,NA,html-button-response,10,124383,0.0-5.0,<p>This is the end of the study. Thank you for participating!</p>,0,NA,NA,NA,NA,NA,NA,awfn_pyeb_heax,NA,NA
50067.84500001231,recaptcha.html,external-html,0,50537,0.0-0.0,NA,NA,NA,NA,NA,NA,NA,NA,azvo_fsyg_mfxt,NA,NA
26876.359999994747,consent/consent.html,external-html,1,77766,0.0-1.0,NA,NA,NA,NA,NA,NA,NA,NA,azvo_fsyg_mfxt,NA,NA
3802.4250000016764,NA,html-button-response,2,81581,0.0-2.0,"<p>In this experiment, you will see some aliens talk and make judgments about what they are talking about.",0,setup,NA,NA,NA,NA,NA,azvo_fsyg_mfxt,,0
27771.74500003457,NA,html-button-response,3,111409,0.0-3.0-0.0,"<p>This is Dax the alien. He speaks an alien language.<br><br>He says, <i> ""Difu Dax midaku.""</i><br>That means ""Hello, my name is Dax.""</p><br><div style='width: 700px;'><div style='float: center;'><img src='img/alien1.png' width='250' height='300'></img></div></div><br>",0,setup,NA,NA,NA,NA,NA,azvo_fsyg_mfxt,,0
10483.490000013262,NA,html-button-response,4,122433,0.0-3.0-1.0,"<p>Dax has two boxes. <br> He opens one box and looks inside. <br><br>Then, Dax says, <i>""Bado mep.""</i></p><div style='width: 700px;'><div style='float: center;'><img src='img/alien1.png' width='250' height='300'></img></div><div style='float: center;'><img src='img/grey_box.png'></img><img src='img/grey_box.png'></img></div></div><br>",0,setup,simple_utt,NA,NA,NA,NA,azvo_fsyg_mfxt,,0
139729.90000003483,NA,html-button-response,5,262828,0.0-3.0-2.0,"<p>Then, Dax opens the other box and looks inside. <br><br>He says, <i>""Toba zem zorp bidaku midu osh gipu.""</i></p><div style='width: 700px;'><div style='float: center;'><img src='img/alien1.png' width='250' height='300'></img></div><div style='float: center;'><img src='img/grey_box.png'></img><img src='img/grey_box.png'></img></div></div><br>",0,setup,complex_utt,NA,NA,NA,NA,azvo_fsyg_mfxt,,0
8994.930000044405,NA,html-button-response,6,272490,0.0-3.0-3.0,<p>Here are Dax's boxes.<br></p><div style='width: 700px;'><div style='float: center;'><img width = '250px' src='img/num_types/box_2.png'></img><img width = '250px' src='img/num_types/box_1.png'></img></div></div>,0,NA,NA,NA,NA,NA,NA,azvo_fsyg_mfxt,NA,NA
5234.664999996312,NA,html-button-response,7,278263,0.0-3.0-4.0,"<p>Remember, Dax looked in one box and said <i>""Bado mep.""</i></p><p>Then Dax looked in the other box and said <i>""Toba zem zorp bidaku midu osh gipu.""</i></p><p>Which box do you think Dax was looking in when he said<br><i>""Bado mep.""</i>?</p><div style='width: 700px;'></div>",1,box_selection,simple_utt,num_types,box_2,box_1,NA,azvo_fsyg_mfxt,box_1,1
6239.5399999804795,NA,html-button-response,8,285011,0.0-3.0-5.0,"<p>Remember, Dax looked in one box and said <i>""Bado mep.""</i></p><p>Then Dax looked in the other box and said <i>""Toba zem zorp bidaku midu osh gipu.""</i></p><p>Which box do you think Dax was looking in when he said<br><i>""Toba zem zorp bidaku midu osh gipu.""</i>?</p><div style='width: 700px;'></div>",0,box_selection,complex_utt,num_types,box_2,box_1,NA,azvo_fsyg_mfxt,box_2,1
24750.754999986384,NA,survey-text,9,310278,0.0-4.0,NA,NA,comment,NA,NA,NA,NA,the first box was all the same so less words were said. ,azvo_fsyg_mfxt,,0
1886.5999999688938,NA,html-button-response,10,312171,0.0-5.0,<p>This is the end of the study. Thank you for participating!</p>,0,NA,NA,NA,NA,NA,NA,azvo_fsyg_mfxt,NA,NA
63976.000000257045,recaptcha.html,external-html,0,64332,0.0-0.0,NA,NA,NA,NA,NA,NA,NA,NA,birm_zjuk_lnni,NA,NA
30459.000000264496,consent/consent.html,external-html,1,95803,0.0-1.0,NA,NA,NA,NA,NA,NA,NA,NA,birm_zjuk_lnni,NA,NA
2751.9999998621643,NA,html-button-response,2,98560,0.0-2.0,"<p>In this experiment, you will see some aliens talk and make judgments about what they are talking about.",0,setup,NA,NA,NA,NA,NA,birm_zjuk_lnni,,0
12359.999999869615,NA,html-button-response,3,112923,0.0-3.0-0.0,"<p>This is Dax the alien. He speaks an alien language.<br><br>He says, <i> ""Difu Dax midaku.""</i><br>That means ""Hello, my name is Dax.""</p><br><div style='width: 700px;'><div style='float: center;'><img src='img/alien1.png' width='250' height='300'></img></div></div><br>",0,setup,NA,NA,NA,NA,NA,birm_zjuk_lnni,,0
11580.999999772757,NA,html-button-response,4,125008,0.0-3.0-1.0,"<p>Dax has two boxes. <br> He opens one box and looks inside. <br><br>Then, Dax says, <i>""Toba zem zorp bidaku midu osh gipu.""</i></p><div style='width: 700px;'><div style='float: center;'><img src='img/alien1.png' width='250' height='300'></img></div><div style='float: center;'><img src='img/grey_box.png'></img><img src='img/grey_box.png'></img></div></div><br>",0,setup,complex_utt,NA,NA,NA,NA,birm_zjuk_lnni,,0
7875.9999996982515,NA,html-button-response,5,133403,0.0-3.0-2.0,"<p>Then, Dax opens the other box and looks inside. <br><br>He says, <i>""Bado mep.""</i></p><div style='width: 700px;'><div style='float: center;'><img src='img/alien1.png' width='250' height='300'></img></div><div style='float: center;'><img src='img/grey_box.png'></img><img src='img/grey_box.png'></img></div></div><br>",0,setup,simple_utt,NA,NA,NA,NA,birm_zjuk_lnni,,0
6320.000000298023,NA,html-button-response,6,140231,0.0-3.0-3.0,<p>Here are Dax's boxes.<br></p><div style='width: 700px;'><div style='float: center;'><img width = '250px' src='img/num_types/box_1.png'></img><img width = '250px' src='img/num_types/box_2.png'></img></div></div>,0,NA,NA,NA,NA,NA,NA,birm_zjuk_lnni,NA,NA
45186.99999991804,NA,html-button-response,7,185924,0.0-3.0-4.0,"<p>Remember, Dax looked in one box and said <i>""Toba zem zorp bidaku midu osh gipu.""</i></p><p>Then Dax looked in the other box and said <i>""Bado mep.""</i></p><p>Which box do you think Dax was looking in when he said<br><i>""Toba zem zorp bidaku midu osh gipu.""</i>?</p><div style='width: 700px;'></div>",0,box_selection,complex_utt,num_types,box_1,box_2,NA,birm_zjuk_lnni,box_1,0
7248.999999836087,NA,html-button-response,8,193679,0.0-3.0-5.0,"<p>Remember, Dax looked in one box and said <i>""Toba zem zorp bidaku midu osh gipu.""</i></p><p>Then Dax looked in the other box and said <i>""Bado mep.""</i></p><p>Which box do you think Dax was looking in when he said<br><i>""Bado mep.""</i>?</p><div style='width: 700px;'></div>",1,box_selection,simple_utt,num_types,box_1,box_2,NA,birm_zjuk_lnni,box_2,0
19077.99999974668,NA,survey-text,9,213275,0.0-4.0,NA,NA,comment,NA,NA,NA,NA,I GUESS I THINK,birm_zjuk_lnni,,0
2530.999999959022,NA,html-button-response,10,215809,0.0-5.0,<p>This is the end of the study. Thank you for participating!</p>,0,NA,NA,NA,NA,NA,NA,birm_zjuk_lnni,NA,NA
49904.914999962784,recaptcha.html,external-html,0,50112,0.0-0.0,NA,NA,NA,NA,NA,NA,NA,NA,biyn_vszs_jzvx,NA,NA
14805.550000048243,consent/consent.html,external-html,1,65160,0.0-1.0,NA,NA,NA,NA,NA,NA,NA,NA,biyn_vszs_jzvx,NA,NA
1958.0500000156462,NA,html-button-response,2,67121,0.0-2.0,"<p>In this experiment, you will see some aliens talk and make judgments about what they are talking about.",0,setup,NA,NA,NA,NA,NA,biyn_vszs_jzvx,,0
16156.64000005927,NA,html-button-response,3,85280,0.0-3.0-0.0,"<p>This is Dax the alien. He speaks an alien language.<br><br>He says, <i> ""Difu Dax midaku.""</i><br>That means ""Hello, my name is Dax.""</p><br><div style='width: 700px;'><div style='float: center;'><img src='img/alien1.png' width='250' height='300'></img></div></div><br>",0,setup,NA,NA,NA,NA,NA,biyn_vszs_jzvx,,0
14355.664999922737,NA,html-button-response,4,100139,0.0-3.0-1.0,"<p>Dax has two boxes. <br> He opens one box and looks inside. <br><br>Then, Dax says, <i>""Toba zem zorp bidaku midu osh gipu.""</i></p><div style='width: 700px;'><div style='float: center;'><img src='img/alien1.png' width='250' height='300'></img></div><div style='float: center;'><img src='img/grey_box.png'></img><img src='img/grey_box.png'></img></div></div><br>",0,setup,complex_utt,NA,NA,NA,NA,biyn_vszs_jzvx,,0
6946.165000088513,NA,html-button-response,5,107589,0.0-3.0-2.0,"<p>Then, Dax opens the other box and looks inside. <br><br>He says, <i>""Bado mep.""</i></p><div style='width: 700px;'><div style='float: center;'><img src='img/alien1.png' width='250' height='300'></img></div><div style='float: center;'><img src='img/grey_box.png'></img><img src='img/grey_box.png'></img></div></div><br>",0,setup,simple_utt,NA,NA,NA,NA,biyn_vszs_jzvx,,0
7256.305000046268,NA,html-button-response,6,115348,0.0-3.0-3.0,<p>Here are Dax's boxes.<br></p><div style='width: 700px;'><div style='float: center;'><img width = '250px' src='img/num_types/box_1.png'></img><img width = '250px' src='img/num_types/box_2.png'></img></div></div>,0,NA,NA,NA,NA,NA,NA,biyn_vszs_jzvx,NA,NA
71463.97000004072,NA,html-button-response,7,187321,0.0-3.0-4.0,"<p>Remember, Dax looked in one box and said <i>""Toba zem zorp bidaku midu osh gipu.""</i></p><p>Then Dax looked in the other box and said <i>""Bado mep.""</i></p><p>Which box do you think Dax was looking in when he said<br><i>""Toba zem zorp bidaku midu osh gipu.""</i>?</p><div style='width: 700px;'></div>",0,box_selection,complex_utt,num_types,box_1,box_2,NA,biyn_vszs_jzvx,box_1,0
12186.195000074804,NA,html-button-response,8,200010,0.0-3.0-5.0,"<p>Remember, Dax looked in one box and said <i>""Toba zem zorp bidaku midu osh gipu.""</i></p><p>Then Dax looked in the other box and said <i>""Bado mep.""</i></p><p>Which box do you think Dax was looking in when he said<br><i>""Bado mep.""</i>?</p><div style='width: 700px;'></div>",1,box_selection,simple_utt,num_types,box_1,box_2,NA,biyn_vszs_jzvx,box_2,0
22215.73499997612,NA,survey-text,9,222730,0.0-4.0,NA,NA,comment,NA,NA,NA,NA,it said second box so i choose,biyn_vszs_jzvx,,0
2337.8099999390543,NA,html-button-response,10,225069,0.0-5.0,<p>This is the end of the study. Thank you for participating!</p>,0,NA,NA,NA,NA,NA,NA,biyn_vszs_jzvx,NA,NA
5236.154999991413,recaptcha.html,external-html,0,5250,0.0-0.0,NA,NA,NA,NA,NA,NA,NA,NA,bnga_kuqv_olrb,NA,NA
17870.404999994207,consent/consent.html,external-html,1,23178,0.0-1.0,NA,NA,NA,NA,NA,NA,NA,NA,bnga_kuqv_olrb,NA,NA
2050.8150000241585,NA,html-button-response,2,25231,0.0-2.0,"<p>In this experiment, you will see some aliens talk and make judgments about what they are talking about.",0,setup,NA,NA,NA,NA,NA,bnga_kuqv_olrb,,0
12479.389999993145,NA,html-button-response,3,39713,0.0-3.0-0.0,"<p>This is Dax the alien. He speaks an alien language.<br><br>He says, <i> ""Difu Dax midaku.""</i><br>That means ""Hello, my name is Dax.""</p><br><div style='width: 700px;'><div style='float: center;'><img src='img/alien1.png' width='250' height='300'></img></div></div><br>",0,setup,NA,NA,NA,NA,NA,bnga_kuqv_olrb,,0
6345.2500000130385,NA,html-button-response,4,46559,0.0-3.0-1.0,"<p>Dax has two boxes. <br> He opens one box and looks inside. <br><br>Then, Dax says, <i>""Toba zem zorp bidaku midu osh gipu.""</i></p><div style='width: 700px;'><div style='float: center;'><img src='img/alien1.png' width='250' height='300'></img></div><div style='float: center;'><img src='img/grey_box.png'></img><img src='img/grey_box.png'></img></div></div><br>",0,setup,complex_utt,NA,NA,NA,NA,bnga_kuqv_olrb,,0
6511.250000039581,NA,html-button-response,5,53572,0.0-3.0-2.0,"<p>Then, Dax opens the other box and looks inside. <br><br>He says, <i>""Bado mep.""</i></p><div style='width: 700px;'><div style='float: center;'><img src='img/alien1.png' width='250' height='300'></img></div><div style='float: center;'><img src='img/grey_box.png'></img><img src='img/grey_box.png'></img></div></div><br>",0,setup,simple_utt,NA,NA,NA,NA,bnga_kuqv_olrb,,0
3159.994999994524,NA,html-button-response,6,57234,0.0-3.0-3.0,<p>Here are Dax's boxes.<br></p><div style='width: 700px;'><div style='float: center;'><img width = '250px' src='img/num_types/box_1.png'></img><img width = '250px' src='img/num_types/box_2.png'></img></div></div>,0,NA,NA,NA,NA,NA,NA,bnga_kuqv_olrb,NA,NA
8472.810000006575,NA,html-button-response,7,66209,0.0-3.0-4.0,"<p>Remember, Dax looked in one box and said <i>""Toba zem zorp bidaku midu osh gipu.""</i></p><p>Then Dax looked in the other box and said <i>""Bado mep.""</i></p><p>Which box do you think Dax was looking in when he said<br><i>""Toba zem zorp bidaku midu osh gipu.""</i>?</p><div style='width: 700px;'></div>",1,box_selection,complex_utt,num_types,box_1,box_2,NA,bnga_kuqv_olrb,box_2,1
2623.704999976326,NA,html-button-response,8,69337,0.0-3.0-5.0,"<p>Remember, Dax looked in one box and said <i>""Toba zem zorp bidaku midu osh gipu.""</i></p><p>Then Dax looked in the other box and said <i>""Bado mep.""</i></p><p>Which box do you think Dax was looking in when he said<br><i>""Bado mep.""</i>?</p><div style='width: 700px;'></div>",0,box_selection,simple_utt,num_types,box_1,box_2,NA,bnga_kuqv_olrb,box_1,1
147377.94499995653,NA,survey-text,9,217219,0.0-4.0,NA,NA,comment,NA,NA,NA,NA,"I looked at the different boxes, I feel the longer text would be for the box with more toys.  The shorter text would describe the box with the spheres.",bnga_kuqv_olrb,,0
1187.5850000069477,NA,html-button-response,10,218408,0.0-5.0,<p>This is the end of the study. Thank you for participating!</p>,0,NA,NA,NA,NA,NA,NA,bnga_kuqv_olrb,NA,NA
15708.000000100583,recaptcha.html,external-html,0,15931,0.0-0.0,NA,NA,NA,NA,NA,NA,NA,NA,bugd_ukdy_jfqf,NA,NA
15800.999999977648,consent/consent.html,external-html,1,33738,0.0-1.0,NA,NA,NA,NA,NA,NA,NA,NA,bugd_ukdy_jfqf,NA,NA
29771.999999997206,NA,html-button-response,2,63517,0.0-2.0,"<p>In this experiment, you will see some aliens talk and make judgments about what they are talking about.",0,setup,NA,NA,NA,NA,NA,bugd_ukdy_jfqf,,0
5493.000000016764,NA,html-button-response,3,71015,0.0-3.0-0.0,"<p>This is Dax the alien. He speaks an alien language.<br><br>He says, <i> ""Difu Dax midaku.""</i><br>That means ""Hello, my name is Dax.""</p><br><div style='width: 700px;'><div style='float: center;'><img src='img/alien1.png' width='250' height='300'></img></div></div><br>",0,setup,NA,NA,NA,NA,NA,bugd_ukdy_jfqf,,0
9189.000000013039,NA,html-button-response,4,81024,0.0-3.0-1.0,"<p>Dax has two boxes. <br> He opens one box and looks inside. <br><br>Then, Dax says, <i>""Toba zem zorp bidaku midu osh gipu.""</i></p><div style='width: 700px;'><div style='float: center;'><img src='img/alien1.png' width='250' height='300'></img></div><div style='float: center;'><img src='img/grey_box.png'></img><img src='img/grey_box.png'></img></div></div><br>",0,setup,complex_utt,NA,NA,NA,NA,bugd_ukdy_jfqf,,0
3589.9999999674037,NA,html-button-response,5,85437,0.0-3.0-2.0,"<p>Then, Dax opens the other box and looks inside. <br><br>He says, <i>""Bado mep.""</i></p><div style='width: 700px;'><div style='float: center;'><img src='img/alien1.png' width='250' height='300'></img></div><div style='float: center;'><img src='img/grey_box.png'></img><img src='img/grey_box.png'></img></div></div><br>",0,setup,simple_utt,NA,NA,NA,NA,bugd_ukdy_jfqf,,0
18413.999999989755,NA,html-button-response,6,104357,0.0-3.0-3.0,<p>Here are Dax's boxes.<br></p><div style='width: 700px;'><div style='float: center;'><img width = '250px' src='img/num_types/box_1.png'></img><img width = '250px' src='img/num_types/box_2.png'></img></div></div>,0,NA,NA,NA,NA,NA,NA,bugd_ukdy_jfqf,NA,NA
2836.9999999413267,NA,html-button-response,7,107700,0.0-3.0-4.0,"<p>Remember, Dax looked in one box and said <i>""Toba zem zorp bidaku midu osh gipu.""</i></p><p>Then Dax looked in the other box and said <i>""Bado mep.""</i></p><p>Which box do you think Dax was looking in when he said<br><i>""Toba zem zorp bidaku midu osh gipu.""</i>?</p><div style='width: 700px;'></div>",0,box_selection,complex_utt,num_types,box_1,box_2,NA,bugd_ukdy_jfqf,box_1,0
4302.000000025146,NA,html-button-response,8,112507,0.0-3.0-5.0,"<p>Remember, Dax looked in one box and said <i>""Toba zem zorp bidaku midu osh gipu.""</i></p><p>Then Dax looked in the other box and said <i>""Bado mep.""</i></p><p>Which box do you think Dax was looking in when he said<br><i>""Bado mep.""</i>?</p><div style='width: 700px;'></div>",1,box_selection,simple_utt,num_types,box_1,box_2,NA,bugd_ukdy_jfqf,box_2,0
15744.999999995343,NA,survey-text,9,128767,0.0-4.0,NA,NA,comment,NA,NA,NA,NA,jado mep,bugd_ukdy_jfqf,,0
17116.999999969266,NA,html-button-response,10,145889,0.0-5.0,<p>This is the end of the study. Thank you for participating!</p>,0,NA,NA,NA,NA,NA,NA,bugd_ukdy_jfqf,NA,NA
31902.000000001863,recaptcha.html,external-html,0,32112,0.0-0.0,NA,NA,NA,NA,NA,NA,NA,NA,bula_ykbu_zqzl,NA,NA
17376.99999999313,consent/consent.html,external-html,1,51901,0.0-1.0,NA,NA,NA,NA,NA,NA,NA,NA,bula_ykbu_zqzl,NA,NA
4524.000000004889,NA,html-button-response,2,56431,0.0-2.0,"<p>In this experiment, you will see some aliens talk and make judgments about what they are talking about.",0,setup,NA,NA,NA,NA,NA,bula_ykbu_zqzl,,0
19389.000000010128,NA,html-button-response,3,77823,0.0-3.0-0.0,"<p>This is Dax the alien. He speaks an alien language.<br><br>He says, <i> ""Difu Dax midaku.""</i><br>That means ""Hello, my name is Dax.""</p><br><div style='width: 700px;'><div style='float: center;'><img src='img/alien1.png' width='250' height='300'></img></div></div><br>",0,setup,NA,NA,NA,NA,NA,bula_ykbu_zqzl,,0
4951.000000000931,NA,html-button-response,4,83279,0.0-3.0-1.0,"<p>Dax has two boxes. <br> He opens one box and looks inside. <br><br>Then, Dax says, <i>""Toba zem zorp bidaku midu osh gipu.""</i></p><div style='width: 700px;'><div style='float: center;'><img src='img/alien1.png' width='250' height='300'></img></div><div style='float: center;'><img src='img/grey_box.png'></img><img src='img/grey_box.png'></img></div></div><br>",0,setup,complex_utt,NA,NA,NA,NA,bula_ykbu_zqzl,,0
3033.9999999996508,NA,html-button-response,5,86819,0.0-3.0-2.0,"<p>Then, Dax opens the other box and looks inside. <br><br>He says, <i>""Bado mep.""</i></p><div style='width: 700px;'><div style='float: center;'><img src='img/alien1.png' width='250' height='300'></img></div><div style='float: center;'><img src='img/grey_box.png'></img><img src='img/grey_box.png'></img></div></div><br>",0,setup,simple_utt,NA,NA,NA,NA,bula_ykbu_zqzl,,0
4099.999999991269,NA,html-button-response,6,91423,0.0-3.0-3.0,<p>Here are Dax's boxes.<br></p><div style='width: 700px;'><div style='float: center;'><img width = '250px' src='img/num_types/box_2.png'></img><img width = '250px' src='img/num_types/box_1.png'></img></div></div>,0,NA,NA,NA,NA,NA,NA,bula_ykbu_zqzl,NA,NA
5240.000000005239,NA,html-button-response,7,97169,0.0-3.0-4.0,"<p>Remember, Dax looked in one box and said <i>""Toba zem zorp bidaku midu osh gipu.""</i></p><p>Then Dax looked in the other box and said <i>""Bado mep.""</i></p><p>Which box do you think Dax was looking in when he said<br><i>""Toba zem zorp bidaku midu osh gipu.""</i>?</p><div style='width: 700px;'></div>",0,box_selection,complex_utt,num_types,box_2,box_1,NA,bula_ykbu_zqzl,box_2,1
10887.999999991735,NA,html-button-response,8,108570,0.0-3.0-5.0,"<p>Remember, Dax looked in one box and said <i>""Toba zem zorp bidaku midu osh gipu.""</i></p><p>Then Dax looked in the other box and said <i>""Bado mep.""</i></p><p>Which box do you think Dax was looking in when he said<br><i>""Bado mep.""</i>?</p><div style='width: 700px;'></div>",1,box_selection,simple_utt,num_types,box_2,box_1,NA,bula_ykbu_zqzl,box_1,1
7245.999999999185,NA,survey-text,9,116336,0.0-4.0,NA,NA,comment,NA,NA,NA,NA,2,bula_ykbu_zqzl,,0
1811.0000000015134,NA,html-button-response,10,118162,0.0-5.0,<p>This is the end of the study. Thank you for participating!</p>,0,NA,NA,NA,NA,NA,NA,bula_ykbu_zqzl,NA,NA
5585.790000041015,recaptcha.html,external-html,0,5611,0.0-0.0,NA,NA,NA,NA,NA,NA,NA,NA,bzle_ubcr_rdub,NA,NA
28201.774999964982,consent/consent.html,external-html,1,34026,0.0-1.0,NA,NA,NA,NA,NA,NA,NA,NA,bzle_ubcr_rdub,NA,NA
28606.80000006687,NA,html-button-response,2,62636,0.0-2.0,"<p>In this experiment, you will see some aliens talk and make judgments about what they are talking about.",0,setup,NA,NA,NA,NA,NA,bzle_ubcr_rdub,,0
38060.21000002511,NA,html-button-response,3,102705,0.0-3.0-0.0,"<p>This is Dax the alien. He speaks an alien language.<br><br>He says, <i> ""Difu Dax midaku.""</i><br>That means ""Hello, my name is Dax.""</p><br><div style='width: 700px;'><div style='float: center;'><img src='img/alien1.png' width='250' height='300'></img></div></div><br>",0,setup,NA,NA,NA,NA,NA,bzle_ubcr_rdub,,0
29980.545000056736,NA,html-button-response,4,133191,0.0-3.0-1.0,"<p>Dax has two boxes. <br> He opens one box and looks inside. <br><br>Then, Dax says, <i>""Toba zem zorp bidaku midu osh gipu.""</i></p><div style='width: 700px;'><div style='float: center;'><img src='img/alien1.png' width='250' height='300'></img></div><div style='float: center;'><img src='img/grey_box.png'></img><img src='img/grey_box.png'></img></div></div><br>",0,setup,complex_utt,NA,NA,NA,NA,bzle_ubcr_rdub,,0
8816.419999930076,NA,html-button-response,5,142510,0.0-3.0-2.0,"<p>Then, Dax opens the other box and looks inside. <br><br>He says, <i>""Bado mep.""</i></p><div style='width: 700px;'><div style='float: center;'><img src='img/alien1.png' width='250' height='300'></img></div><div style='float: center;'><img src='img/grey_box.png'></img><img src='img/grey_box.png'></img></div></div><br>",0,setup,simple_utt,NA,NA,NA,NA,bzle_ubcr_rdub,,0
5320.940000005066,NA,html-button-response,6,148334,0.0-3.0-3.0,<p>Here are Dax's boxes.<br></p><div style='width: 700px;'><div style='float: center;'><img width = '250px' src='img/num_objects/box_2.png'></img><img width = '250px' src='img/num_objects/box_1.png'></img></div></div>,0,NA,NA,NA,NA,NA,NA,bzle_ubcr_rdub,NA,NA
9710.725000011735,NA,html-button-response,7,158550,0.0-3.0-4.0,"<p>Remember, Dax looked in one box and said <i>""Toba zem zorp bidaku midu osh gipu.""</i></p><p>Then Dax looked in the other box and said <i>""Bado mep.""</i></p><p>Which box do you think Dax was looking in when he said<br><i>""Toba zem zorp bidaku midu osh gipu.""</i>?</p><div style='width: 700px;'></div>",0,box_selection,complex_utt,num_objects,box_2,box_1,NA,bzle_ubcr_rdub,box_2,1
8656.030000071041,NA,html-button-response,8,167712,0.0-3.0-5.0,"<p>Remember, Dax looked in one box and said <i>""Toba zem zorp bidaku midu osh gipu.""</i></p><p>Then Dax looked in the other box and said <i>""Bado mep.""</i></p><p>Which box do you think Dax was looking in when he said<br><i>""Bado mep.""</i>?</p><div style='width: 700px;'></div>",1,box_selection,simple_utt,num_objects,box_2,box_1,NA,bzle_ubcr_rdub,box_1,1
60360.82499998156,NA,survey-text,9,228583,0.0-4.0,NA,NA,comment,NA,NA,NA,NA,Based on the ammmount of words used to describe the contents.,bzle_ubcr_rdub,,0
2320.2099999180064,NA,html-button-response,10,230904,0.0-5.0,<p>This is the end of the study. Thank you for participating!</p>,0,NA,NA,NA,NA,NA,NA,bzle_ubcr_rdub,NA,NA
23597.999999998137,recaptcha.html,external-html,0,23694,0.0-0.0,NA,NA,NA,NA,NA,NA,NA,NA,cakm_jdhy_lfdi,NA,NA
49398.999999975786,consent/consent.html,external-html,1,73743,0.0-1.0,NA,NA,NA,NA,NA,NA,NA,NA,cakm_jdhy_lfdi,NA,NA
3144.0000000875443,NA,html-button-response,2,76893,0.0-2.0,"<p>In this experiment, you will see some aliens talk and make judgments about what they are talking about.",0,setup,NA,NA,NA,NA,NA,cakm_jdhy_lfdi,,0
15406.999999890104,NA,html-button-response,3,94312,0.0-3.0-0.0,"<p>This is Dax the alien. He speaks an alien language.<br><br>He says, <i> ""Difu Dax midaku.""</i><br>That means ""Hello, my name is Dax.""</p><br><div style='width: 700px;'><div style='float: center;'><img src='img/alien1.png' width='250' height='300'></img></div></div><br>",0,setup,NA,NA,NA,NA,NA,cakm_jdhy_lfdi,,0
11179.000000003725,NA,html-button-response,4,106012,0.0-3.0-1.0,"<p>Dax has two boxes. <br> He opens one box and looks inside. <br><br>Then, Dax says, <i>""Bado mep.""</i></p><div style='width: 700px;'><div style='float: center;'><img src='img/alien1.png' width='250' height='300'></img></div><div style='float: center;'><img src='img/grey_box.png'></img><img src='img/grey_box.png'></img></div></div><br>",0,setup,simple_utt,NA,NA,NA,NA,cakm_jdhy_lfdi,,0
6911.000000080094,NA,html-button-response,5,113432,0.0-3.0-2.0,"<p>Then, Dax opens the other box and looks inside. <br><br>He says, <i>""Toba zem zorp bidaku midu osh gipu.""</i></p><div style='width: 700px;'><div style='float: center;'><img src='img/alien1.png' width='250' height='300'></img></div><div style='float: center;'><img src='img/grey_box.png'></img><img src='img/grey_box.png'></img></div></div><br>",0,setup,complex_utt,NA,NA,NA,NA,cakm_jdhy_lfdi,,0
11662.000000011176,NA,html-button-response,6,125603,0.0-3.0-3.0,<p>Here are Dax's boxes.<br></p><div style='width: 700px;'><div style='float: center;'><img width = '250px' src='img/num_types/box_1.png'></img><img width = '250px' src='img/num_types/box_2.png'></img></div></div>,0,NA,NA,NA,NA,NA,NA,cakm_jdhy_lfdi,NA,NA
24490.99999992177,NA,html-button-response,7,150602,0.0-3.0-4.0,"<p>Remember, Dax looked in one box and said <i>""Bado mep.""</i></p><p>Then Dax looked in the other box and said <i>""Toba zem zorp bidaku midu osh gipu.""</i></p><p>Which box do you think Dax was looking in when he said<br><i>""Bado mep.""</i>?</p><div style='width: 700px;'></div>",0,box_selection,simple_utt,num_types,box_1,box_2,NA,cakm_jdhy_lfdi,box_1,1
2719.000000040978,NA,html-button-response,8,153836,0.0-3.0-5.0,"<p>Remember, Dax looked in one box and said <i>""Bado mep.""</i></p><p>Then Dax looked in the other box and said <i>""Toba zem zorp bidaku midu osh gipu.""</i></p><p>Which box do you think Dax was looking in when he said<br><i>""Toba zem zorp bidaku midu osh gipu.""</i>?</p><div style='width: 700px;'></div>",0,box_selection,complex_utt,num_types,box_1,box_2,NA,cakm_jdhy_lfdi,box_1,0
35975.00000009313,NA,survey-text,9,190323,0.0-4.0,NA,NA,comment,NA,NA,NA,NA,alien good sit box,cakm_jdhy_lfdi,,0
2305.000000167638,NA,html-button-response,10,192632,0.0-5.0,<p>This is the end of the study. Thank you for participating!</p>,0,NA,NA,NA,NA,NA,NA,cakm_jdhy_lfdi,NA,NA
6407.384999998612,recaptcha.html,external-html,0,6429,0.0-0.0,NA,NA,NA,NA,NA,NA,NA,NA,cgpr_xepo_ekcf,NA,NA
8872.999999992317,consent/consent.html,external-html,1,15537,0.0-1.0,NA,NA,NA,NA,NA,NA,NA,NA,cgpr_xepo_ekcf,NA,NA
3284.0199999918696,NA,html-button-response,2,18825,0.0-2.0,"<p>In this experiment, you will see some aliens talk and make judgments about what they are talking about.",0,setup,NA,NA,NA,NA,NA,cgpr_xepo_ekcf,,0
11298.05500000657,NA,html-button-response,3,32132,0.0-3.0-0.0,"<p>This is Dax the alien. He speaks an alien language.<br><br>He says, <i> ""Difu Dax midaku.""</i><br>That means ""Hello, my name is Dax.""</p><br><div style='width: 700px;'><div style='float: center;'><img src='img/alien1.png' width='250' height='300'></img></div></div><br>",0,setup,NA,NA,NA,NA,NA,cgpr_xepo_ekcf,,0
4690.535000001546,NA,html-button-response,4,37338,0.0-3.0-1.0,"<p>Dax has two boxes. <br> He opens one box and looks inside. <br><br>Then, Dax says, <i>""Toba zem zorp bidaku midu osh gipu.""</i></p><div style='width: 700px;'><div style='float: center;'><img src='img/alien1.png' width='250' height='300'></img></div><div style='float: center;'><img src='img/grey_box.png'></img><img src='img/grey_box.png'></img></div></div><br>",0,setup,complex_utt,NA,NA,NA,NA,cgpr_xepo_ekcf,,0
3217.7950000041164,NA,html-button-response,5,41073,0.0-3.0-2.0,"<p>Then, Dax opens the other box and looks inside. <br><br>He says, <i>""Bado mep.""</i></p><div style='width: 700px;'><div style='float: center;'><img src='img/alien1.png' width='250' height='300'></img></div><div style='float: center;'><img src='img/grey_box.png'></img><img src='img/grey_box.png'></img></div></div><br>",0,setup,simple_utt,NA,NA,NA,NA,cgpr_xepo_ekcf,,0
1687.019999997574,NA,html-button-response,6,43267,0.0-3.0-3.0,<p>Here are Dax's boxes.<br></p><div style='width: 700px;'><div style='float: center;'><img width = '250px' src='img/num_types/box_2.png'></img><img width = '250px' src='img/num_types/box_1.png'></img></div></div>,0,NA,NA,NA,NA,NA,NA,cgpr_xepo_ekcf,NA,NA
3932.2599999868544,NA,html-button-response,7,47707,0.0-3.0-4.0,"<p>Remember, Dax looked in one box and said <i>""Toba zem zorp bidaku midu osh gipu.""</i></p><p>Then Dax looked in the other box and said <i>""Bado mep.""</i></p><p>Which box do you think Dax was looking in when he said<br><i>""Toba zem zorp bidaku midu osh gipu.""</i>?</p><div style='width: 700px;'></div>",0,box_selection,complex_utt,num_types,box_2,box_1,NA,cgpr_xepo_ekcf,box_2,1
1819.0949999989243,NA,html-button-response,8,50035,0.0-3.0-5.0,"<p>Remember, Dax looked in one box and said <i>""Toba zem zorp bidaku midu osh gipu.""</i></p><p>Then Dax looked in the other box and said <i>""Bado mep.""</i></p><p>Which box do you think Dax was looking in when he said<br><i>""Bado mep.""</i>?</p><div style='width: 700px;'></div>",1,box_selection,simple_utt,num_types,box_2,box_1,NA,cgpr_xepo_ekcf,box_1,1
20994.670000000042,NA,survey-text,9,71549,0.0-4.0,NA,NA,comment,NA,NA,NA,NA,The longer sentence seemed like it had more details like the one box had way more details of items.,cgpr_xepo_ekcf,,0
416863.8149999897,NA,html-button-response,10,488415,0.0-5.0,<p>This is the end of the study. Thank you for participating!</p>,0,NA,NA,NA,NA,NA,NA,cgpr_xepo_ekcf,NA,NA
64769.780000002356,recaptcha.html,external-html,0,64870,0.0-0.0,NA,NA,NA,NA,NA,NA,NA,NA,ckaf_tkzo_wuwn,NA,NA
43830.41499998944,consent/consent.html,external-html,1,110168,0.0-1.0,NA,NA,NA,NA,NA,NA,NA,NA,ckaf_tkzo_wuwn,NA,NA
6187.77499999851,NA,html-button-response,2,116363,0.0-2.0,"<p>In this experiment, you will see some aliens talk and make judgments about what they are talking about.",0,setup,NA,NA,NA,NA,NA,ckaf_tkzo_wuwn,,0
14755.755000005593,NA,html-button-response,3,133123,0.0-3.0-0.0,"<p>This is Dax the alien. He speaks an alien language.<br><br>He says, <i> ""Difu Dax midaku.""</i><br>That means ""Hello, my name is Dax.""</p><br><div style='width: 700px;'><div style='float: center;'><img src='img/alien1.png' width='250' height='300'></img></div></div><br>",0,setup,NA,NA,NA,NA,NA,ckaf_tkzo_wuwn,,0
15294.445000006817,NA,html-button-response,4,148924,0.0-3.0-1.0,"<p>Dax has two boxes. <br> He opens one box and looks inside. <br><br>Then, Dax says, <i>""Bado mep.""</i></p><div style='width: 700px;'><div style='float: center;'><img src='img/alien1.png' width='250' height='300'></img></div><div style='float: center;'><img src='img/grey_box.png'></img><img src='img/grey_box.png'></img></div></div><br>",0,setup,simple_utt,NA,NA,NA,NA,ckaf_tkzo_wuwn,,0
11622.065000003204,NA,html-button-response,5,161052,0.0-3.0-2.0,"<p>Then, Dax opens the other box and looks inside. <br><br>He says, <i>""Toba zem zorp bidaku midu osh gipu.""</i></p><div style='width: 700px;'><div style='float: center;'><img src='img/alien1.png' width='250' height='300'></img></div><div style='float: center;'><img src='img/grey_box.png'></img><img src='img/grey_box.png'></img></div></div><br>",0,setup,complex_utt,NA,NA,NA,NA,ckaf_tkzo_wuwn,,0
2098.0600000038976,NA,html-button-response,6,163655,0.0-3.0-3.0,<p>Here are Dax's boxes.<br></p><div style='width: 700px;'><div style='float: center;'><img width = '250px' src='img/num_types/box_2.png'></img><img width = '250px' src='img/num_types/box_1.png'></img></div></div>,0,NA,NA,NA,NA,NA,NA,ckaf_tkzo_wuwn,NA,NA
19338.220000005094,NA,html-button-response,7,183501,0.0-3.0-4.0,"<p>Remember, Dax looked in one box and said <i>""Bado mep.""</i></p><p>Then Dax looked in the other box and said <i>""Toba zem zorp bidaku midu osh gipu.""</i></p><p>Which box do you think Dax was looking in when he said<br><i>""Bado mep.""</i>?</p><div style='width: 700px;'></div>",1,box_selection,simple_utt,num_types,box_2,box_1,NA,ckaf_tkzo_wuwn,box_1,1
7731.890000010026,NA,html-button-response,8,191740,0.0-3.0-5.0,"<p>Remember, Dax looked in one box and said <i>""Bado mep.""</i></p><p>Then Dax looked in the other box and said <i>""Toba zem zorp bidaku midu osh gipu.""</i></p><p>Which box do you think Dax was looking in when he said<br><i>""Toba zem zorp bidaku midu osh gipu.""</i>?</p><div style='width: 700px;'></div>",0,box_selection,complex_utt,num_types,box_2,box_1,NA,ckaf_tkzo_wuwn,box_2,1
30612.65999999887,NA,survey-text,9,222867,0.0-4.0,NA,NA,comment,NA,NA,NA,NA,base on his short term and long phrase,ckaf_tkzo_wuwn,,0
2584.275000001071,NA,html-button-response,10,225454,0.0-5.0,<p>This is the end of the study. Thank you for participating!</p>,0,NA,NA,NA,NA,NA,NA,ckaf_tkzo_wuwn,NA,NA
36527.00000000186,recaptcha.html,external-html,0,37038,0.0-0.0,NA,NA,NA,NA,NA,NA,NA,NA,cmxg_olfa_hxpt,NA,NA
45549.99999998836,consent/consent.html,external-html,1,82832,0.0-1.0,NA,NA,NA,NA,NA,NA,NA,NA,cmxg_olfa_hxpt,NA,NA
12627.999999996973,NA,html-button-response,2,95474,0.0-2.0,"<p>In this experiment, you will see some aliens talk and make judgments about what they are talking about.",0,setup,NA,NA,NA,NA,NA,cmxg_olfa_hxpt,,0
13766.99999999255,NA,html-button-response,3,111252,0.0-3.0-0.0,"<p>This is Dax the alien. He speaks an alien language.<br><br>He says, <i> ""Difu Dax midaku.""</i><br>That means ""Hello, my name is Dax.""</p><br><div style='width: 700px;'><div style='float: center;'><img src='img/alien1.png' width='250' height='300'></img></div></div><br>",0,setup,NA,NA,NA,NA,NA,cmxg_olfa_hxpt,,0
12469.000000011874,NA,html-button-response,4,124268,0.0-3.0-1.0,"<p>Dax has two boxes. <br> He opens one box and looks inside. <br><br>Then, Dax says, <i>""Toba zem zorp bidaku midu osh gipu.""</i></p><div style='width: 700px;'><div style='float: center;'><img src='img/alien1.png' width='250' height='300'></img></div><div style='float: center;'><img src='img/grey_box.png'></img><img src='img/grey_box.png'></img></div></div><br>",0,setup,complex_utt,NA,NA,NA,NA,cmxg_olfa_hxpt,,0
6604.000000021188,NA,html-button-response,5,131378,0.0-3.0-2.0,"<p>Then, Dax opens the other box and looks inside. <br><br>He says, <i>""Bado mep.""</i></p><div style='width: 700px;'><div style='float: center;'><img src='img/alien1.png' width='250' height='300'></img></div><div style='float: center;'><img src='img/grey_box.png'></img><img src='img/grey_box.png'></img></div></div><br>",0,setup,simple_utt,NA,NA,NA,NA,cmxg_olfa_hxpt,,0
4482.000000018161,NA,html-button-response,6,136435,0.0-3.0-3.0,<p>Here are Dax's boxes.<br></p><div style='width: 700px;'><div style='float: center;'><img width = '250px' src='img/num_objects/box_1.png'></img><img width = '250px' src='img/num_objects/box_2.png'></img></div></div>,0,NA,NA,NA,NA,NA,NA,cmxg_olfa_hxpt,NA,NA
12478.999999992084,NA,html-button-response,7,149441,0.0-3.0-4.0,"<p>Remember, Dax looked in one box and said <i>""Toba zem zorp bidaku midu osh gipu.""</i></p><p>Then Dax looked in the other box and said <i>""Bado mep.""</i></p><p>Which box do you think Dax was looking in when he said<br><i>""Toba zem zorp bidaku midu osh gipu.""</i>?</p><div style='width: 700px;'></div>",1,box_selection,complex_utt,num_objects,box_1,box_2,NA,cmxg_olfa_hxpt,box_2,1
5934.000000008382,NA,html-button-response,8,155898,0.0-3.0-5.0,"<p>Remember, Dax looked in one box and said <i>""Toba zem zorp bidaku midu osh gipu.""</i></p><p>Then Dax looked in the other box and said <i>""Bado mep.""</i></p><p>Which box do you think Dax was looking in when he said<br><i>""Bado mep.""</i>?</p><div style='width: 700px;'></div>",0,box_selection,simple_utt,num_objects,box_1,box_2,NA,cmxg_olfa_hxpt,box_1,1
122734.99999998603,NA,survey-text,9,279191,0.0-4.0,NA,NA,comment,NA,NA,NA,NA,I thought the short answer was \There's nothing\ so selected that box with less beads for that answer and so the other one.,cmxg_olfa_hxpt,,0
1966.9999999750871,NA,html-button-response,10,281160,0.0-5.0,<p>This is the end of the study. Thank you for participating!</p>,0,NA,NA,NA,NA,NA,NA,cmxg_olfa_hxpt,NA,NA
20739.999999757856,recaptcha.html,external-html,0,20778,0.0-0.0,NA,NA,NA,NA,NA,NA,NA,NA,cstz_qdtn_olsf,NA,NA
10217.000000178814,consent/consent.html,external-html,1,31326,0.0-1.0,NA,NA,NA,NA,NA,NA,NA,NA,cstz_qdtn_olsf,NA,NA
2067.9999999701977,NA,html-button-response,2,33397,0.0-2.0,"<p>In this experiment, you will see some aliens talk and make judgments about what they are talking about.",0,setup,NA,NA,NA,NA,NA,cstz_qdtn_olsf,,0
3223.9999999292195,NA,html-button-response,3,38625,0.0-3.0-0.0,"<p>This is Dax the alien. He speaks an alien language.<br><br>He says, <i> ""Difu Dax midaku.""</i><br>That means ""Hello, my name is Dax.""</p><br><div style='width: 700px;'><div style='float: center;'><img src='img/alien1.png' width='250' height='300'></img></div></div><br>",0,setup,NA,NA,NA,NA,NA,cstz_qdtn_olsf,,0
7260.999999940395,NA,html-button-response,4,46392,0.0-3.0-1.0,"<p>Dax has two boxes. <br> He opens one box and looks inside. <br><br>Then, Dax says, <i>""Bado mep.""</i></p><div style='width: 700px;'><div style='float: center;'><img src='img/alien1.png' width='250' height='300'></img></div><div style='float: center;'><img src='img/grey_box.png'></img><img src='img/grey_box.png'></img></div></div><br>",0,setup,simple_utt,NA,NA,NA,NA,cstz_qdtn_olsf,,0
5821.999999694526,NA,html-button-response,5,52717,0.0-3.0-2.0,"<p>Then, Dax opens the other box and looks inside. <br><br>He says, <i>""Toba zem zorp bidaku midu osh gipu.""</i></p><div style='width: 700px;'><div style='float: center;'><img src='img/alien1.png' width='250' height='300'></img></div><div style='float: center;'><img src='img/grey_box.png'></img><img src='img/grey_box.png'></img></div></div><br>",0,setup,complex_utt,NA,NA,NA,NA,cstz_qdtn_olsf,,0
7544.999999925494,NA,html-button-response,6,60766,0.0-3.0-3.0,<p>Here are Dax's boxes.<br></p><div style='width: 700px;'><div style='float: center;'><img width = '250px' src='img/num_objects/box_2.png'></img><img width = '250px' src='img/num_objects/box_1.png'></img></div></div>,0,NA,NA,NA,NA,NA,NA,cstz_qdtn_olsf,NA,NA
8904.999999795109,NA,html-button-response,7,70176,0.0-3.0-4.0,"<p>Remember, Dax looked in one box and said <i>""Bado mep.""</i></p><p>Then Dax looked in the other box and said <i>""Toba zem zorp bidaku midu osh gipu.""</i></p><p>Which box do you think Dax was looking in when he said<br><i>""Bado mep.""</i>?</p><div style='width: 700px;'></div>",1,box_selection,simple_utt,num_objects,box_2,box_1,NA,cstz_qdtn_olsf,box_1,1
2294.999999925494,NA,html-button-response,8,72977,0.0-3.0-5.0,"<p>Remember, Dax looked in one box and said <i>""Bado mep.""</i></p><p>Then Dax looked in the other box and said <i>""Toba zem zorp bidaku midu osh gipu.""</i></p><p>Which box do you think Dax was looking in when he said<br><i>""Toba zem zorp bidaku midu osh gipu.""</i>?</p><div style='width: 700px;'></div>",0,box_selection,complex_utt,num_objects,box_2,box_1,NA,cstz_qdtn_olsf,box_2,1
13641.99999999255,NA,survey-text,9,87127,0.0-4.0,NA,NA,comment,NA,NA,NA,NA,ITS MY DECISION ,cstz_qdtn_olsf,,0
2082.0000004023314,NA,html-button-response,10,89211,0.0-5.0,<p>This is the end of the study. Thank you for participating!</p>,0,NA,NA,NA,NA,NA,NA,cstz_qdtn_olsf,NA,NA
28753.99999995716,recaptcha.html,external-html,0,28853,0.0-0.0,NA,NA,NA,NA,NA,NA,NA,NA,ctaq_ortd_jwam,NA,NA
11405.999999959022,consent/consent.html,external-html,1,41384,0.0-1.0,NA,NA,NA,NA,NA,NA,NA,NA,ctaq_ortd_jwam,NA,NA
1854.9999999813735,NA,html-button-response,2,43244,0.0-2.0,"<p>In this experiment, you will see some aliens talk and make judgments about what they are talking about.",0,setup,NA,NA,NA,NA,NA,ctaq_ortd_jwam,,0
5497.000000032131,NA,html-button-response,3,50744,0.0-3.0-0.0,"<p>This is Dax the alien. He speaks an alien language.<br><br>He says, <i> ""Difu Dax midaku.""</i><br>That means ""Hello, my name is Dax.""</p><br><div style='width: 700px;'><div style='float: center;'><img src='img/alien1.png' width='250' height='300'></img></div></div><br>",0,setup,NA,NA,NA,NA,NA,ctaq_ortd_jwam,,0
6679.999999993015,NA,html-button-response,4,57930,0.0-3.0-1.0,"<p>Dax has two boxes. <br> He opens one box and looks inside. <br><br>Then, Dax says, <i>""Bado mep.""</i></p><div style='width: 700px;'><div style='float: center;'><img src='img/alien1.png' width='250' height='300'></img></div><div style='float: center;'><img src='img/grey_box.png'></img><img src='img/grey_box.png'></img></div></div><br>",0,setup,simple_utt,NA,NA,NA,NA,ctaq_ortd_jwam,,0
3766.0000000032596,NA,html-button-response,5,62200,0.0-3.0-2.0,"<p>Then, Dax opens the other box and looks inside. <br><br>He says, <i>""Toba zem zorp bidaku midu osh gipu.""</i></p><div style='width: 700px;'><div style='float: center;'><img src='img/alien1.png' width='250' height='300'></img></div><div style='float: center;'><img src='img/grey_box.png'></img><img src='img/grey_box.png'></img></div></div><br>",0,setup,complex_utt,NA,NA,NA,NA,ctaq_ortd_jwam,,0
6934.999999997672,NA,html-button-response,6,69641,0.0-3.0-3.0,<p>Here are Dax's boxes.<br></p><div style='width: 700px;'><div style='float: center;'><img width = '250px' src='img/num_objects/box_1.png'></img><img width = '250px' src='img/num_objects/box_2.png'></img></div></div>,0,NA,NA,NA,NA,NA,NA,ctaq_ortd_jwam,NA,NA
2021.0000000079162,NA,html-button-response,7,72170,0.0-3.0-4.0,"<p>Remember, Dax looked in one box and said <i>""Bado mep.""</i></p><p>Then Dax looked in the other box and said <i>""Toba zem zorp bidaku midu osh gipu.""</i></p><p>Which box do you think Dax was looking in when he said<br><i>""Bado mep.""</i>?</p><div style='width: 700px;'></div>",1,box_selection,simple_utt,num_objects,box_1,box_2,NA,ctaq_ortd_jwam,box_2,0
1989.000000001397,NA,html-button-response,8,74667,0.0-3.0-5.0,"<p>Remember, Dax looked in one box and said <i>""Bado mep.""</i></p><p>Then Dax looked in the other box and said <i>""Toba zem zorp bidaku midu osh gipu.""</i></p><p>Which box do you think Dax was looking in when he said<br><i>""Toba zem zorp bidaku midu osh gipu.""</i>?</p><div style='width: 700px;'></div>",1,box_selection,complex_utt,num_objects,box_1,box_2,NA,ctaq_ortd_jwam,box_2,1
27168.000000005122,NA,survey-text,9,102367,0.0-4.0,NA,NA,comment,NA,NA,NA,NA,i think good choose,ctaq_ortd_jwam,,0
1711.0000000102445,NA,html-button-response,10,104083,0.0-5.0,<p>This is the end of the study. Thank you for participating!</p>,0,NA,NA,NA,NA,NA,NA,ctaq_ortd_jwam,NA,NA
47719.27500003949,recaptcha.html,external-html,0,47734,0.0-0.0,NA,NA,NA,NA,NA,NA,NA,NA,cwzr_eddr_aiuj,NA,NA
51700.509999878705,consent/consent.html,external-html,1,99542,0.0-1.0,NA,NA,NA,NA,NA,NA,NA,NA,cwzr_eddr_aiuj,NA,NA
7197.814999613911,NA,html-button-response,2,106743,0.0-2.0,"<p>In this experiment, you will see some aliens talk and make judgments about what they are talking about.",0,setup,NA,NA,NA,NA,NA,cwzr_eddr_aiuj,,0
34726.425000000745,NA,html-button-response,3,143474,0.0-3.0-0.0,"<p>This is Dax the alien. He speaks an alien language.<br><br>He says, <i> ""Difu Dax midaku.""</i><br>That means ""Hello, my name is Dax.""</p><br><div style='width: 700px;'><div style='float: center;'><img src='img/alien1.png' width='250' height='300'></img></div></div><br>",0,setup,NA,NA,NA,NA,NA,cwzr_eddr_aiuj,,0
17426.93499987945,NA,html-button-response,4,161404,0.0-3.0-1.0,"<p>Dax has two boxes. <br> He opens one box and looks inside. <br><br>Then, Dax says, <i>""Toba zem zorp bidaku midu osh gipu.""</i></p><div style='width: 700px;'><div style='float: center;'><img src='img/alien1.png' width='250' height='300'></img></div><div style='float: center;'><img src='img/grey_box.png'></img><img src='img/grey_box.png'></img></div></div><br>",0,setup,complex_utt,NA,NA,NA,NA,cwzr_eddr_aiuj,,0
24336.95500018075,NA,html-button-response,5,186244,0.0-3.0-2.0,"<p>Then, Dax opens the other box and looks inside. <br><br>He says, <i>""Bado mep.""</i></p><div style='width: 700px;'><div style='float: center;'><img src='img/alien1.png' width='250' height='300'></img></div><div style='float: center;'><img src='img/grey_box.png'></img><img src='img/grey_box.png'></img></div></div><br>",0,setup,simple_utt,NA,NA,NA,NA,cwzr_eddr_aiuj,,0
11747.390000149608,NA,html-button-response,6,198494,0.0-3.0-3.0,<p>Here are Dax's boxes.<br></p><div style='width: 700px;'><div style='float: center;'><img width = '250px' src='img/num_types/box_1.png'></img><img width = '250px' src='img/num_types/box_2.png'></img></div></div>,0,NA,NA,NA,NA,NA,NA,cwzr_eddr_aiuj,NA,NA
14437.039999756962,NA,html-button-response,7,213434,0.0-3.0-4.0,"<p>Remember, Dax looked in one box and said <i>""Toba zem zorp bidaku midu osh gipu.""</i></p><p>Then Dax looked in the other box and said <i>""Bado mep.""</i></p><p>Which box do you think Dax was looking in when he said<br><i>""Toba zem zorp bidaku midu osh gipu.""</i>?</p><div style='width: 700px;'></div>",1,box_selection,complex_utt,num_types,box_1,box_2,NA,cwzr_eddr_aiuj,box_2,1
5097.094999626279,NA,html-button-response,8,219034,0.0-3.0-5.0,"<p>Remember, Dax looked in one box and said <i>""Toba zem zorp bidaku midu osh gipu.""</i></p><p>Then Dax looked in the other box and said <i>""Bado mep.""</i></p><p>Which box do you think Dax was looking in when he said<br><i>""Bado mep.""</i>?</p><div style='width: 700px;'></div>",1,box_selection,simple_utt,num_types,box_1,box_2,NA,cwzr_eddr_aiuj,box_2,0
49844.81499996036,NA,survey-text,9,269384,0.0-4.0,NA,NA,comment,NA,NA,NA,NA,boxes have different images,cwzr_eddr_aiuj,,0
3397.9150000959635,NA,html-button-response,10,272784,0.0-5.0,<p>This is the end of the study. Thank you for participating!</p>,0,NA,NA,NA,NA,NA,NA,cwzr_eddr_aiuj,NA,NA
239235.47000001417,recaptcha.html,external-html,0,239705,0.0-0.0,NA,NA,NA,NA,NA,NA,NA,NA,dbju_gavk_hxld,NA,NA
20033.605000004172,consent/consent.html,external-html,1,261424,0.0-1.0,NA,NA,NA,NA,NA,NA,NA,NA,dbju_gavk_hxld,NA,NA
4222.859999979846,NA,html-button-response,2,265657,0.0-2.0,"<p>In this experiment, you will see some aliens talk and make judgments about what they are talking about.",0,setup,NA,NA,NA,NA,NA,dbju_gavk_hxld,,0
4563.66500002332,NA,html-button-response,3,272230,0.0-3.0-0.0,"<p>This is Dax the alien. He speaks an alien language.<br><br>He says, <i> ""Difu Dax midaku.""</i><br>That means ""Hello, my name is Dax.""</p><br><div style='width: 700px;'><div style='float: center;'><img src='img/alien1.png' width='250' height='300'></img></div></div><br>",0,setup,NA,NA,NA,NA,NA,dbju_gavk_hxld,,0
8861.604999983683,NA,html-button-response,4,281597,0.0-3.0-1.0,"<p>Dax has two boxes. <br> He opens one box and looks inside. <br><br>Then, Dax says, <i>""Bado mep.""</i></p><div style='width: 700px;'><div style='float: center;'><img src='img/alien1.png' width='250' height='300'></img></div><div style='float: center;'><img src='img/grey_box.png'></img><img src='img/grey_box.png'></img></div></div><br>",0,setup,simple_utt,NA,NA,NA,NA,dbju_gavk_hxld,,0
8613.450000004377,NA,html-button-response,5,290715,0.0-3.0-2.0,"<p>Then, Dax opens the other box and looks inside. <br><br>He says, <i>""Toba zem zorp bidaku midu osh gipu.""</i></p><div style='width: 700px;'><div style='float: center;'><img src='img/alien1.png' width='250' height='300'></img></div><div style='float: center;'><img src='img/grey_box.png'></img><img src='img/grey_box.png'></img></div></div><br>",0,setup,complex_utt,NA,NA,NA,NA,dbju_gavk_hxld,,0
4982.955000014044,NA,html-button-response,6,296203,0.0-3.0-3.0,<p>Here are Dax's boxes.<br></p><div style='width: 700px;'><div style='float: center;'><img width = '250px' src='img/num_types/box_2.png'></img><img width = '250px' src='img/num_types/box_1.png'></img></div></div>,0,NA,NA,NA,NA,NA,NA,dbju_gavk_hxld,NA,NA
1583.7150000152178,NA,html-button-response,7,298292,0.0-3.0-4.0,"<p>Remember, Dax looked in one box and said <i>""Bado mep.""</i></p><p>Then Dax looked in the other box and said <i>""Toba zem zorp bidaku midu osh gipu.""</i></p><p>Which box do you think Dax was looking in when he said<br><i>""Bado mep.""</i>?</p><div style='width: 700px;'></div>",0,box_selection,simple_utt,num_types,box_2,box_1,NA,dbju_gavk_hxld,box_2,0
5069.900000002235,NA,html-button-response,8,303866,0.0-3.0-5.0,"<p>Remember, Dax looked in one box and said <i>""Bado mep.""</i></p><p>Then Dax looked in the other box and said <i>""Toba zem zorp bidaku midu osh gipu.""</i></p><p>Which box do you think Dax was looking in when he said<br><i>""Toba zem zorp bidaku midu osh gipu.""</i>?</p><div style='width: 700px;'></div>",0,box_selection,complex_utt,num_types,box_2,box_1,NA,dbju_gavk_hxld,box_2,1
6024.675000051502,NA,survey-text,9,310399,0.0-4.0,NA,NA,comment,NA,NA,NA,NA,varities in it ,dbju_gavk_hxld,,0
2151.629999978468,NA,html-button-response,10,312553,0.0-5.0,<p>This is the end of the study. Thank you for participating!</p>,0,NA,NA,NA,NA,NA,NA,dbju_gavk_hxld,NA,NA
3852.485000003071,recaptcha.html,external-html,0,3980,0.0-0.0,NA,NA,NA,NA,NA,NA,NA,NA,dcrp_bevm_ixqp,NA,NA
16252.690000001166,consent/consent.html,external-html,1,20335,0.0-1.0,NA,NA,NA,NA,NA,NA,NA,NA,dcrp_bevm_ixqp,NA,NA
30245.624999995925,NA,html-button-response,2,50583,0.0-2.0,"<p>In this experiment, you will see some aliens talk and make judgments about what they are talking about.",0,setup,NA,NA,NA,NA,NA,dcrp_bevm_ixqp,,0
9377.25999999384,NA,html-button-response,3,61967,0.0-3.0-0.0,"<p>This is Dax the alien. He speaks an alien language.<br><br>He says, <i> ""Difu Dax midaku.""</i><br>That means ""Hello, my name is Dax.""</p><br><div style='width: 700px;'><div style='float: center;'><img src='img/alien1.png' width='250' height='300'></img></div></div><br>",0,setup,NA,NA,NA,NA,NA,dcrp_bevm_ixqp,,0
6566.455000000133,NA,html-button-response,4,69047,0.0-3.0-1.0,"<p>Dax has two boxes. <br> He opens one box and looks inside. <br><br>Then, Dax says, <i>""Bado mep.""</i></p><div style='width: 700px;'><div style='float: center;'><img src='img/alien1.png' width='250' height='300'></img></div><div style='float: center;'><img src='img/grey_box.png'></img><img src='img/grey_box.png'></img></div></div><br>",0,setup,simple_utt,NA,NA,NA,NA,dcrp_bevm_ixqp,,0
6355.919999994512,NA,html-button-response,5,75911,0.0-3.0-2.0,"<p>Then, Dax opens the other box and looks inside. <br><br>He says, <i>""Toba zem zorp bidaku midu osh gipu.""</i></p><div style='width: 700px;'><div style='float: center;'><img src='img/alien1.png' width='250' height='300'></img></div><div style='float: center;'><img src='img/grey_box.png'></img><img src='img/grey_box.png'></img></div></div><br>",0,setup,complex_utt,NA,NA,NA,NA,dcrp_bevm_ixqp,,0
19306.194999997388,NA,html-button-response,6,95736,0.0-3.0-3.0,<p>Here are Dax's boxes.<br></p><div style='width: 700px;'><div style='float: center;'><img width = '250px' src='img/num_types/box_2.png'></img><img width = '250px' src='img/num_types/box_1.png'></img></div></div>,0,NA,NA,NA,NA,NA,NA,dcrp_bevm_ixqp,NA,NA
4982.885000004899,NA,html-button-response,7,101239,0.0-3.0-4.0,"<p>Remember, Dax looked in one box and said <i>""Bado mep.""</i></p><p>Then Dax looked in the other box and said <i>""Toba zem zorp bidaku midu osh gipu.""</i></p><p>Which box do you think Dax was looking in when he said<br><i>""Bado mep.""</i>?</p><div style='width: 700px;'></div>",1,box_selection,simple_utt,num_types,box_2,box_1,NA,dcrp_bevm_ixqp,box_1,1
2249.0250000046217,NA,html-button-response,8,103991,0.0-3.0-5.0,"<p>Remember, Dax looked in one box and said <i>""Bado mep.""</i></p><p>Then Dax looked in the other box and said <i>""Toba zem zorp bidaku midu osh gipu.""</i></p><p>Which box do you think Dax was looking in when he said<br><i>""Toba zem zorp bidaku midu osh gipu.""</i>?</p><div style='width: 700px;'></div>",0,box_selection,complex_utt,num_types,box_2,box_1,NA,dcrp_bevm_ixqp,box_2,1
45153.440000001865,NA,survey-text,9,149671,0.0-4.0,NA,NA,comment,NA,NA,NA,NA,"It seemed reasonable that Dax's language would require more words for the box that contained many different shapes and sizes of objects, so \Bado mep\ probably referred to the simpler box",dcrp_bevm_ixqp,,0
4445.97999999678,NA,html-button-response,10,154118,0.0-5.0,<p>This is the end of the study. Thank you for participating!</p>,0,NA,NA,NA,NA,NA,NA,dcrp_bevm_ixqp,NA,NA
15127.939999998489,recaptcha.html,external-html,0,15207,0.0-0.0,NA,NA,NA,NA,NA,NA,NA,NA,ddlb_ioem_hdrv,NA,NA
9977.589999994962,consent/consent.html,external-html,1,26731,0.0-1.0,NA,NA,NA,NA,NA,NA,NA,NA,ddlb_ioem_hdrv,NA,NA
1211.4849999998114,NA,html-button-response,2,27952,0.0-2.0,"<p>In this experiment, you will see some aliens talk and make judgments about what they are talking about.",0,setup,NA,NA,NA,NA,NA,ddlb_ioem_hdrv,,0
3774.6299999998882,NA,html-button-response,3,33736,0.0-3.0-0.0,"<p>This is Dax the alien. He speaks an alien language.<br><br>He says, <i> ""Difu Dax midaku.""</i><br>That means ""Hello, my name is Dax.""</p><br><div style='width: 700px;'><div style='float: center;'><img src='img/alien1.png' width='250' height='300'></img></div></div><br>",0,setup,NA,NA,NA,NA,NA,ddlb_ioem_hdrv,,0
3270.535000003292,NA,html-button-response,4,37529,0.0-3.0-1.0,"<p>Dax has two boxes. <br> He opens one box and looks inside. <br><br>Then, Dax says, <i>""Toba zem zorp bidaku midu osh gipu.""</i></p><div style='width: 700px;'><div style='float: center;'><img src='img/alien1.png' width='250' height='300'></img></div><div style='float: center;'><img src='img/grey_box.png'></img><img src='img/grey_box.png'></img></div></div><br>",0,setup,complex_utt,NA,NA,NA,NA,ddlb_ioem_hdrv,,0
6741.345000002184,NA,html-button-response,5,44777,0.0-3.0-2.0,"<p>Then, Dax opens the other box and looks inside. <br><br>He says, <i>""Bado mep.""</i></p><div style='width: 700px;'><div style='float: center;'><img src='img/alien1.png' width='250' height='300'></img></div><div style='float: center;'><img src='img/grey_box.png'></img><img src='img/grey_box.png'></img></div></div><br>",0,setup,simple_utt,NA,NA,NA,NA,ddlb_ioem_hdrv,,0
1151.544999993348,NA,html-button-response,6,46434,0.0-3.0-3.0,<p>Here are Dax's boxes.<br></p><div style='width: 700px;'><div style='float: center;'><img width = '250px' src='img/num_objects/box_1.png'></img><img width = '250px' src='img/num_objects/box_2.png'></img></div></div>,0,NA,NA,NA,NA,NA,NA,ddlb_ioem_hdrv,NA,NA
1531.8350000015926,NA,html-button-response,7,48474,0.0-3.0-4.0,"<p>Remember, Dax looked in one box and said <i>""Toba zem zorp bidaku midu osh gipu.""</i></p><p>Then Dax looked in the other box and said <i>""Bado mep.""</i></p><p>Which box do you think Dax was looking in when he said<br><i>""Toba zem zorp bidaku midu osh gipu.""</i>?</p><div style='width: 700px;'></div>",0,box_selection,complex_utt,num_objects,box_1,box_2,NA,ddlb_ioem_hdrv,box_1,0
698.5849999982747,NA,html-button-response,8,49681,0.0-3.0-5.0,"<p>Remember, Dax looked in one box and said <i>""Toba zem zorp bidaku midu osh gipu.""</i></p><p>Then Dax looked in the other box and said <i>""Bado mep.""</i></p><p>Which box do you think Dax was looking in when he said<br><i>""Bado mep.""</i>?</p><div style='width: 700px;'></div>",1,box_selection,simple_utt,num_objects,box_1,box_2,NA,ddlb_ioem_hdrv,box_2,0
7420.505000001867,NA,survey-text,9,57617,0.0-4.0,NA,NA,comment,NA,NA,NA,NA,i like it,ddlb_ioem_hdrv,,0
874.2050000000745,NA,html-button-response,10,58495,0.0-5.0,<p>This is the end of the study. Thank you for participating!</p>,0,NA,NA,NA,NA,NA,NA,ddlb_ioem_hdrv,NA,NA
32627.82000000152,recaptcha.html,external-html,0,32674,0.0-0.0,NA,NA,NA,NA,NA,NA,NA,NA,djlq_gcwg_jsfv,NA,NA
8801.469999998517,consent/consent.html,external-html,1,41518,0.0-1.0,NA,NA,NA,NA,NA,NA,NA,NA,djlq_gcwg_jsfv,NA,NA
1089.1950000004726,NA,html-button-response,2,42617,0.0-2.0,"<p>In this experiment, you will see some aliens talk and make judgments about what they are talking about.",0,setup,NA,NA,NA,NA,NA,djlq_gcwg_jsfv,,0
8568.2500000039,NA,html-button-response,3,53191,0.0-3.0-0.0,"<p>This is Dax the alien. He speaks an alien language.<br><br>He says, <i> ""Difu Dax midaku.""</i><br>That means ""Hello, my name is Dax.""</p><br><div style='width: 700px;'><div style='float: center;'><img src='img/alien1.png' width='250' height='300'></img></div></div><br>",0,setup,NA,NA,NA,NA,NA,djlq_gcwg_jsfv,,0
10501.149999996414,NA,html-button-response,4,64201,0.0-3.0-1.0,"<p>Dax has two boxes. <br> He opens one box and looks inside. <br><br>Then, Dax says, <i>""Bado mep.""</i></p><div style='width: 700px;'><div style='float: center;'><img src='img/alien1.png' width='250' height='300'></img></div><div style='float: center;'><img src='img/grey_box.png'></img><img src='img/grey_box.png'></img></div></div><br>",0,setup,simple_utt,NA,NA,NA,NA,djlq_gcwg_jsfv,,0
1508.8749999995343,NA,html-button-response,5,66216,0.0-3.0-2.0,"<p>Then, Dax opens the other box and looks inside. <br><br>He says, <i>""Toba zem zorp bidaku midu osh gipu.""</i></p><div style='width: 700px;'><div style='float: center;'><img src='img/alien1.png' width='250' height='300'></img></div><div style='float: center;'><img src='img/grey_box.png'></img><img src='img/grey_box.png'></img></div></div><br>",0,setup,complex_utt,NA,NA,NA,NA,djlq_gcwg_jsfv,,0
918.6049999989336,NA,html-button-response,6,67640,0.0-3.0-3.0,<p>Here are Dax's boxes.<br></p><div style='width: 700px;'><div style='float: center;'><img width = '250px' src='img/num_types/box_1.png'></img><img width = '250px' src='img/num_types/box_2.png'></img></div></div>,0,NA,NA,NA,NA,NA,NA,djlq_gcwg_jsfv,NA,NA
4204.939999995986,NA,html-button-response,7,72353,0.0-3.0-4.0,"<p>Remember, Dax looked in one box and said <i>""Bado mep.""</i></p><p>Then Dax looked in the other box and said <i>""Toba zem zorp bidaku midu osh gipu.""</i></p><p>Which box do you think Dax was looking in when he said<br><i>""Bado mep.""</i>?</p><div style='width: 700px;'></div>",1,box_selection,simple_utt,num_types,box_1,box_2,NA,djlq_gcwg_jsfv,box_2,0
6146.934999997029,NA,html-button-response,8,79009,0.0-3.0-5.0,"<p>Remember, Dax looked in one box and said <i>""Bado mep.""</i></p><p>Then Dax looked in the other box and said <i>""Toba zem zorp bidaku midu osh gipu.""</i></p><p>Which box do you think Dax was looking in when he said<br><i>""Toba zem zorp bidaku midu osh gipu.""</i>?</p><div style='width: 700px;'></div>",1,box_selection,complex_utt,num_types,box_1,box_2,NA,djlq_gcwg_jsfv,box_2,1
3023.0549999978393,NA,survey-text,9,82545,0.0-4.0,NA,NA,comment,NA,NA,NA,NA,i like it,djlq_gcwg_jsfv,,0
785.8950000008917,NA,html-button-response,10,83336,0.0-5.0,<p>This is the end of the study. Thank you for participating!</p>,0,NA,NA,NA,NA,NA,NA,djlq_gcwg_jsfv,NA,NA
83927.00000014156,recaptcha.html,external-html,0,84001,0.0-0.0,NA,NA,NA,NA,NA,NA,NA,NA,dmcu_gplw_oxhm,NA,NA
15370.99999981001,consent/consent.html,external-html,1,100524,0.0-1.0,NA,NA,NA,NA,NA,NA,NA,NA,dmcu_gplw_oxhm,NA,NA
6597.999999765307,NA,html-button-response,2,107126,0.0-2.0,"<p>In this experiment, you will see some aliens talk and make judgments about what they are talking about.",0,setup,NA,NA,NA,NA,NA,dmcu_gplw_oxhm,,0
7515.000000130385,NA,html-button-response,3,116664,0.0-3.0-0.0,"<p>This is Dax the alien. He speaks an alien language.<br><br>He says, <i> ""Difu Dax midaku.""</i><br>That means ""Hello, my name is Dax.""</p><br><div style='width: 700px;'><div style='float: center;'><img src='img/alien1.png' width='250' height='300'></img></div></div><br>",0,setup,NA,NA,NA,NA,NA,dmcu_gplw_oxhm,,0
25726.999999955297,NA,html-button-response,4,142895,0.0-3.0-1.0,"<p>Dax has two boxes. <br> He opens one box and looks inside. <br><br>Then, Dax says, <i>""Toba zem zorp bidaku midu osh gipu.""</i></p><div style='width: 700px;'><div style='float: center;'><img src='img/alien1.png' width='250' height='300'></img></div><div style='float: center;'><img src='img/grey_box.png'></img><img src='img/grey_box.png'></img></div></div><br>",0,setup,complex_utt,NA,NA,NA,NA,dmcu_gplw_oxhm,,0
8350.000000093132,NA,html-button-response,5,151753,0.0-3.0-2.0,"<p>Then, Dax opens the other box and looks inside. <br><br>He says, <i>""Bado mep.""</i></p><div style='width: 700px;'><div style='float: center;'><img src='img/alien1.png' width='250' height='300'></img></div><div style='float: center;'><img src='img/grey_box.png'></img><img src='img/grey_box.png'></img></div></div><br>",0,setup,simple_utt,NA,NA,NA,NA,dmcu_gplw_oxhm,,0
5904.999999795109,NA,html-button-response,6,158165,0.0-3.0-3.0,<p>Here are Dax's boxes.<br></p><div style='width: 700px;'><div style='float: center;'><img width = '250px' src='img/num_types/box_2.png'></img><img width = '250px' src='img/num_types/box_1.png'></img></div></div>,0,NA,NA,NA,NA,NA,NA,dmcu_gplw_oxhm,NA,NA
4486.000000033528,NA,html-button-response,7,163168,0.0-3.0-4.0,"<p>Remember, Dax looked in one box and said <i>""Toba zem zorp bidaku midu osh gipu.""</i></p><p>Then Dax looked in the other box and said <i>""Bado mep.""</i></p><p>Which box do you think Dax was looking in when he said<br><i>""Toba zem zorp bidaku midu osh gipu.""</i>?</p><div style='width: 700px;'></div>",0,box_selection,complex_utt,num_types,box_2,box_1,NA,dmcu_gplw_oxhm,box_2,1
2108.999999705702,NA,html-button-response,8,165782,0.0-3.0-5.0,"<p>Remember, Dax looked in one box and said <i>""Toba zem zorp bidaku midu osh gipu.""</i></p><p>Then Dax looked in the other box and said <i>""Bado mep.""</i></p><p>Which box do you think Dax was looking in when he said<br><i>""Bado mep.""</i>?</p><div style='width: 700px;'></div>",0,box_selection,simple_utt,num_types,box_2,box_1,NA,dmcu_gplw_oxhm,box_2,0
68874.00000030175,NA,survey-text,9,235166,0.0-4.0,NA,NA,comment,NA,NA,NA,NA,colorful box like the box,dmcu_gplw_oxhm,,0
6625,NA,html-button-response,10,241793,0.0-5.0,<p>This is the end of the study. Thank you for participating!</p>,0,NA,NA,NA,NA,NA,NA,dmcu_gplw_oxhm,NA,NA
7977.754999999888,recaptcha.html,external-html,0,8355,0.0-0.0,NA,NA,NA,NA,NA,NA,NA,NA,drdl_bqlf_cwzz,NA,NA
21637.68500000151,consent/consent.html,external-html,1,30352,0.0-1.0,NA,NA,NA,NA,NA,NA,NA,NA,drdl_bqlf_cwzz,NA,NA
1271.680000001652,NA,html-button-response,2,31628,0.0-2.0,"<p>In this experiment, you will see some aliens talk and make judgments about what they are talking about.",0,setup,NA,NA,NA,NA,NA,drdl_bqlf_cwzz,,0
7873.050000001967,NA,html-button-response,3,41502,0.0-3.0-0.0,"<p>This is Dax the alien. He speaks an alien language.<br><br>He says, <i> ""Difu Dax midaku.""</i><br>That means ""Hello, my name is Dax.""</p><br><div style='width: 700px;'><div style='float: center;'><img src='img/alien1.png' width='250' height='300'></img></div></div><br>",0,setup,NA,NA,NA,NA,NA,drdl_bqlf_cwzz,,0
8512.660000000324,NA,html-button-response,4,50519,0.0-3.0-1.0,"<p>Dax has two boxes. <br> He opens one box and looks inside. <br><br>Then, Dax says, <i>""Toba zem zorp bidaku midu osh gipu.""</i></p><div style='width: 700px;'><div style='float: center;'><img src='img/alien1.png' width='250' height='300'></img></div><div style='float: center;'><img src='img/grey_box.png'></img><img src='img/grey_box.png'></img></div></div><br>",0,setup,complex_utt,NA,NA,NA,NA,drdl_bqlf_cwzz,,0
3566.7500000017753,NA,html-button-response,5,54592,0.0-3.0-2.0,"<p>Then, Dax opens the other box and looks inside. <br><br>He says, <i>""Bado mep.""</i></p><div style='width: 700px;'><div style='float: center;'><img src='img/alien1.png' width='250' height='300'></img></div><div style='float: center;'><img src='img/grey_box.png'></img><img src='img/grey_box.png'></img></div></div><br>",0,setup,simple_utt,NA,NA,NA,NA,drdl_bqlf_cwzz,,0
3712.085000002844,NA,html-button-response,6,58806,0.0-3.0-3.0,<p>Here are Dax's boxes.<br></p><div style='width: 700px;'><div style='float: center;'><img width = '250px' src='img/num_types/box_1.png'></img><img width = '250px' src='img/num_types/box_2.png'></img></div></div>,0,NA,NA,NA,NA,NA,NA,drdl_bqlf_cwzz,NA,NA
10435.39999999848,NA,html-button-response,7,69746,0.0-3.0-4.0,"<p>Remember, Dax looked in one box and said <i>""Toba zem zorp bidaku midu osh gipu.""</i></p><p>Then Dax looked in the other box and said <i>""Bado mep.""</i></p><p>Which box do you think Dax was looking in when he said<br><i>""Toba zem zorp bidaku midu osh gipu.""</i>?</p><div style='width: 700px;'></div>",1,box_selection,complex_utt,num_types,box_1,box_2,NA,drdl_bqlf_cwzz,box_2,1
2047.275000000809,NA,html-button-response,8,72298,0.0-3.0-5.0,"<p>Remember, Dax looked in one box and said <i>""Toba zem zorp bidaku midu osh gipu.""</i></p><p>Then Dax looked in the other box and said <i>""Bado mep.""</i></p><p>Which box do you think Dax was looking in when he said<br><i>""Bado mep.""</i>?</p><div style='width: 700px;'></div>",0,box_selection,simple_utt,num_types,box_1,box_2,NA,drdl_bqlf_cwzz,box_1,1
26909.009999999398,NA,survey-text,9,99712,0.0-4.0,NA,NA,comment,NA,NA,NA,NA,It seemed like the box with more options would generate more descriptive words compared to a box with one object which could be described in a shorter sentence.,drdl_bqlf_cwzz,,0
1090.5949999978475,NA,html-button-response,10,100804,0.0-5.0,<p>This is the end of the study. Thank you for participating!</p>,0,NA,NA,NA,NA,NA,NA,drdl_bqlf_cwzz,NA,NA
19667.00000000128,recaptcha.html,external-html,0,19704,0.0-0.0,NA,NA,NA,NA,NA,NA,NA,NA,ebbj_npsg_zwks,NA,NA
17523.999999997613,consent/consent.html,external-html,1,37439,0.0-1.0,NA,NA,NA,NA,NA,NA,NA,NA,ebbj_npsg_zwks,NA,NA
2163.0000000004657,NA,html-button-response,2,39609,0.0-2.0,"<p>In this experiment, you will see some aliens talk and make judgments about what they are talking about.",0,setup,NA,NA,NA,NA,NA,ebbj_npsg_zwks,,0
13474.000000001979,NA,html-button-response,3,55089,0.0-3.0-0.0,"<p>This is Dax the alien. He speaks an alien language.<br><br>He says, <i> ""Difu Dax midaku.""</i><br>That means ""Hello, my name is Dax.""</p><br><div style='width: 700px;'><div style='float: center;'><img src='img/alien1.png' width='250' height='300'></img></div></div><br>",0,setup,NA,NA,NA,NA,NA,ebbj_npsg_zwks,,0
8736.000000004424,NA,html-button-response,4,64334,0.0-3.0-1.0,"<p>Dax has two boxes. <br> He opens one box and looks inside. <br><br>Then, Dax says, <i>""Toba zem zorp bidaku midu osh gipu.""</i></p><div style='width: 700px;'><div style='float: center;'><img src='img/alien1.png' width='250' height='300'></img></div><div style='float: center;'><img src='img/grey_box.png'></img><img src='img/grey_box.png'></img></div></div><br>",0,setup,complex_utt,NA,NA,NA,NA,ebbj_npsg_zwks,,0
5669.999999998254,NA,html-button-response,5,70509,0.0-3.0-2.0,"<p>Then, Dax opens the other box and looks inside. <br><br>He says, <i>""Bado mep.""</i></p><div style='width: 700px;'><div style='float: center;'><img src='img/alien1.png' width='250' height='300'></img></div><div style='float: center;'><img src='img/grey_box.png'></img><img src='img/grey_box.png'></img></div></div><br>",0,setup,simple_utt,NA,NA,NA,NA,ebbj_npsg_zwks,,0
3680.000000000291,NA,html-button-response,6,74693,0.0-3.0-3.0,<p>Here are Dax's boxes.<br></p><div style='width: 700px;'><div style='float: center;'><img width = '250px' src='img/num_objects/box_1.png'></img><img width = '250px' src='img/num_objects/box_2.png'></img></div></div>,0,NA,NA,NA,NA,NA,NA,ebbj_npsg_zwks,NA,NA
5295.9999999948195,NA,html-button-response,7,80496,0.0-3.0-4.0,"<p>Remember, Dax looked in one box and said <i>""Toba zem zorp bidaku midu osh gipu.""</i></p><p>Then Dax looked in the other box and said <i>""Bado mep.""</i></p><p>Which box do you think Dax was looking in when he said<br><i>""Toba zem zorp bidaku midu osh gipu.""</i>?</p><div style='width: 700px;'></div>",1,box_selection,complex_utt,num_objects,box_1,box_2,NA,ebbj_npsg_zwks,box_2,1
1398.0000000010477,NA,html-button-response,8,82399,0.0-3.0-5.0,"<p>Remember, Dax looked in one box and said <i>""Toba zem zorp bidaku midu osh gipu.""</i></p><p>Then Dax looked in the other box and said <i>""Bado mep.""</i></p><p>Which box do you think Dax was looking in when he said<br><i>""Bado mep.""</i>?</p><div style='width: 700px;'></div>",1,box_selection,simple_utt,num_objects,box_1,box_2,NA,ebbj_npsg_zwks,box_2,0
28146.999999997206,NA,survey-text,9,111059,0.0-4.0,NA,NA,comment,NA,NA,NA,NA,more dots box filling,ebbj_npsg_zwks,,0
2069.999999999709,NA,html-button-response,10,113133,0.0-5.0,<p>This is the end of the study. Thank you for participating!</p>,0,NA,NA,NA,NA,NA,NA,ebbj_npsg_zwks,NA,NA
6920.975000000908,recaptcha.html,external-html,0,6978,0.0-0.0,NA,NA,NA,NA,NA,NA,NA,NA,ebbt_atcv_cxfa,NA,NA
44038.744999998016,consent/consent.html,external-html,1,51312,0.0-1.0,NA,NA,NA,NA,NA,NA,NA,NA,ebbt_atcv_cxfa,NA,NA
3367.215000002034,NA,html-button-response,2,54686,0.0-2.0,"<p>In this experiment, you will see some aliens talk and make judgments about what they are talking about.",0,setup,NA,NA,NA,NA,NA,ebbt_atcv_cxfa,,0
18216.37499999997,NA,html-button-response,3,74912,0.0-3.0-0.0,"<p>This is Dax the alien. He speaks an alien language.<br><br>He says, <i> ""Difu Dax midaku.""</i><br>That means ""Hello, my name is Dax.""</p><br><div style='width: 700px;'><div style='float: center;'><img src='img/alien1.png' width='250' height='300'></img></div></div><br>",0,setup,NA,NA,NA,NA,NA,ebbt_atcv_cxfa,,0
8489.319999996951,NA,html-button-response,4,83911,0.0-3.0-1.0,"<p>Dax has two boxes. <br> He opens one box and looks inside. <br><br>Then, Dax says, <i>""Bado mep.""</i></p><div style='width: 700px;'><div style='float: center;'><img src='img/alien1.png' width='250' height='300'></img></div><div style='float: center;'><img src='img/grey_box.png'></img><img src='img/grey_box.png'></img></div></div><br>",0,setup,simple_utt,NA,NA,NA,NA,ebbt_atcv_cxfa,,0
21461.285000001226,NA,html-button-response,5,105883,0.0-3.0-2.0,"<p>Then, Dax opens the other box and looks inside. <br><br>He says, <i>""Toba zem zorp bidaku midu osh gipu.""</i></p><div style='width: 700px;'><div style='float: center;'><img src='img/alien1.png' width='250' height='300'></img></div><div style='float: center;'><img src='img/grey_box.png'></img><img src='img/grey_box.png'></img></div></div><br>",0,setup,complex_utt,NA,NA,NA,NA,ebbt_atcv_cxfa,,0
12682.700000001205,NA,html-button-response,6,119073,0.0-3.0-3.0,<p>Here are Dax's boxes.<br></p><div style='width: 700px;'><div style='float: center;'><img width = '250px' src='img/num_objects/box_2.png'></img><img width = '250px' src='img/num_objects/box_1.png'></img></div></div>,0,NA,NA,NA,NA,NA,NA,ebbt_atcv_cxfa,NA,NA
18209.100000000035,NA,html-button-response,7,137799,0.0-3.0-4.0,"<p>Remember, Dax looked in one box and said <i>""Bado mep.""</i></p><p>Then Dax looked in the other box and said <i>""Toba zem zorp bidaku midu osh gipu.""</i></p><p>Which box do you think Dax was looking in when he said<br><i>""Bado mep.""</i>?</p><div style='width: 700px;'></div>",1,box_selection,simple_utt,num_objects,box_2,box_1,NA,ebbt_atcv_cxfa,box_1,1
3762.4199999991106,NA,html-button-response,8,142069,0.0-3.0-5.0,"<p>Remember, Dax looked in one box and said <i>""Bado mep.""</i></p><p>Then Dax looked in the other box and said <i>""Toba zem zorp bidaku midu osh gipu.""</i></p><p>Which box do you think Dax was looking in when he said<br><i>""Toba zem zorp bidaku midu osh gipu.""</i>?</p><div style='width: 700px;'></div>",0,box_selection,complex_utt,num_objects,box_2,box_1,NA,ebbt_atcv_cxfa,box_2,1
44992.97999999908,NA,survey-text,9,187578,0.0-4.0,NA,NA,comment,NA,NA,NA,NA,"I connect more language with more dots. Like, \Oh wow look how many are in here!\ versus \Only two\",ebbt_atcv_cxfa,,0
2510.439999998198,NA,html-button-response,10,190092,0.0-5.0,<p>This is the end of the study. Thank you for participating!</p>,0,NA,NA,NA,NA,NA,NA,ebbt_atcv_cxfa,NA,NA
4222.955000000184,recaptcha.html,external-html,0,4259,0.0-0.0,NA,NA,NA,NA,NA,NA,NA,NA,efhv_gnvj_ehsy,NA,NA
45975.54499999933,consent/consent.html,external-html,1,50349,0.0-1.0,NA,NA,NA,NA,NA,NA,NA,NA,efhv_gnvj_ehsy,NA,NA
1586.2299999998868,NA,html-button-response,2,51942,0.0-2.0,"<p>In this experiment, you will see some aliens talk and make judgments about what they are talking about.",0,setup,NA,NA,NA,NA,NA,efhv_gnvj_ehsy,,0
315718.8100000003,NA,html-button-response,3,369665,0.0-3.0-0.0,"<p>This is Dax the alien. He speaks an alien language.<br><br>He says, <i> ""Difu Dax midaku.""</i><br>That means ""Hello, my name is Dax.""</p><br><div style='width: 700px;'><div style='float: center;'><img src='img/alien1.png' width='250' height='300'></img></div></div><br>",0,setup,NA,NA,NA,NA,NA,efhv_gnvj_ehsy,,0
10829.780000000028,NA,html-button-response,4,380999,0.0-3.0-1.0,"<p>Dax has two boxes. <br> He opens one box and looks inside. <br><br>Then, Dax says, <i>""Bado mep.""</i></p><div style='width: 700px;'><div style='float: center;'><img src='img/alien1.png' width='250' height='300'></img></div><div style='float: center;'><img src='img/grey_box.png'></img><img src='img/grey_box.png'></img></div></div><br>",0,setup,simple_utt,NA,NA,NA,NA,efhv_gnvj_ehsy,,0
3630.935000000114,NA,html-button-response,5,385135,0.0-3.0-2.0,"<p>Then, Dax opens the other box and looks inside. <br><br>He says, <i>""Toba zem zorp bidaku midu osh gipu.""</i></p><div style='width: 700px;'><div style='float: center;'><img src='img/alien1.png' width='250' height='300'></img></div><div style='float: center;'><img src='img/grey_box.png'></img><img src='img/grey_box.png'></img></div></div><br>",0,setup,complex_utt,NA,NA,NA,NA,efhv_gnvj_ehsy,,0
2474.275000000489,NA,html-button-response,6,388112,0.0-3.0-3.0,<p>Here are Dax's boxes.<br></p><div style='width: 700px;'><div style='float: center;'><img width = '250px' src='img/num_types/box_1.png'></img><img width = '250px' src='img/num_types/box_2.png'></img></div></div>,0,NA,NA,NA,NA,NA,NA,efhv_gnvj_ehsy,NA,NA
7455.5950000003795,NA,html-button-response,7,396077,0.0-3.0-4.0,"<p>Remember, Dax looked in one box and said <i>""Bado mep.""</i></p><p>Then Dax looked in the other box and said <i>""Toba zem zorp bidaku midu osh gipu.""</i></p><p>Which box do you think Dax was looking in when he said<br><i>""Bado mep.""</i>?</p><div style='width: 700px;'></div>",1,box_selection,simple_utt,num_types,box_1,box_2,NA,efhv_gnvj_ehsy,box_2,0
2300.030000000319,NA,html-button-response,8,398883,0.0-3.0-5.0,"<p>Remember, Dax looked in one box and said <i>""Bado mep.""</i></p><p>Then Dax looked in the other box and said <i>""Toba zem zorp bidaku midu osh gipu.""</i></p><p>Which box do you think Dax was looking in when he said<br><i>""Toba zem zorp bidaku midu osh gipu.""</i>?</p><div style='width: 700px;'></div>",0,box_selection,complex_utt,num_types,box_1,box_2,NA,efhv_gnvj_ehsy,box_1,0
20903.860000000335,NA,survey-text,9,420304,0.0-4.0,NA,NA,comment,NA,NA,NA,NA,I figured the longer chain of phrases corresponded to more detailed items.,efhv_gnvj_ehsy,,0
1246.1549999998533,NA,html-button-response,10,421554,0.0-5.0,<p>This is the end of the study. Thank you for participating!</p>,0,NA,NA,NA,NA,NA,NA,efhv_gnvj_ehsy,NA,NA
11877.999999999929,recaptcha.html,external-html,0,11951,0.0-0.0,NA,NA,NA,NA,NA,NA,NA,NA,egcl_mfnm_eqjt,NA,NA
16416.999999999916,consent/consent.html,external-html,1,28732,0.0-1.0,NA,NA,NA,NA,NA,NA,NA,NA,egcl_mfnm_eqjt,NA,NA
2533.9999999998763,NA,html-button-response,2,31282,0.0-2.0,"<p>In this experiment, you will see some aliens talk and make judgments about what they are talking about.",0,setup,NA,NA,NA,NA,NA,egcl_mfnm_eqjt,,0
6932.999999999985,NA,html-button-response,3,40229,0.0-3.0-0.0,"<p>This is Dax the alien. He speaks an alien language.<br><br>He says, <i> ""Difu Dax midaku.""</i><br>That means ""Hello, my name is Dax.""</p><br><div style='width: 700px;'><div style='float: center;'><img src='img/alien1.png' width='250' height='300'></img></div></div><br>",0,setup,NA,NA,NA,NA,NA,egcl_mfnm_eqjt,,0
5693.999999999964,NA,html-button-response,4,46424,0.0-3.0-1.0,"<p>Dax has two boxes. <br> He opens one box and looks inside. <br><br>Then, Dax says, <i>""Toba zem zorp bidaku midu osh gipu.""</i></p><div style='width: 700px;'><div style='float: center;'><img src='img/alien1.png' width='250' height='300'></img></div><div style='float: center;'><img src='img/grey_box.png'></img><img src='img/grey_box.png'></img></div></div><br>",0,setup,complex_utt,NA,NA,NA,NA,egcl_mfnm_eqjt,,0
2777.0000000000437,NA,html-button-response,5,49703,0.0-3.0-2.0,"<p>Then, Dax opens the other box and looks inside. <br><br>He says, <i>""Bado mep.""</i></p><div style='width: 700px;'><div style='float: center;'><img src='img/alien1.png' width='250' height='300'></img></div><div style='float: center;'><img src='img/grey_box.png'></img><img src='img/grey_box.png'></img></div></div><br>",0,setup,simple_utt,NA,NA,NA,NA,egcl_mfnm_eqjt,,0
5477.000000000087,NA,html-button-response,6,55681,0.0-3.0-3.0,<p>Here are Dax's boxes.<br></p><div style='width: 700px;'><div style='float: center;'><img width = '250px' src='img/num_types/box_2.png'></img><img width = '250px' src='img/num_types/box_1.png'></img></div></div>,0,NA,NA,NA,NA,NA,NA,egcl_mfnm_eqjt,NA,NA
